Time (s),Gyroscope X (deg/s),Gyroscope Y (deg/s),Gyroscope Z (deg/s),Accelerometer X (g),Accelerometer Y (g),Accelerometer Z (g),Magnetometer X (uT),Magnetometer Y (uT),Magnetometer Z (uT),Barometer (hPa)
0.000000000,-0.05613857,0.04184172,0.05570632,0.00933581,0.980378,0.1604939,6.194885,-23.37114,-31.20223,1001.204
0.020184040,0.1276872,0.1613792,-0.06636012,0.01364037,0.9833243,0.1629788,6.194885,-23.37114,-31.20223,1001.204
0.040368080,0.005136684,-0.07769579,-0.005326898,0.01755701,0.9785478,0.1619053,5.825054,-23.36855,-31.64284,1001.204
0.060551643,0.005136684,0.04184172,0.05570632,0.02132646,0.9858413,0.1649637,5.825054,-23.36855,-31.64284,1001.204
0.080735683,0.06641194,-0.1374646,-0.005326898,0.01171714,0.9827969,0.1644309,5.825054,-23.36855,-31.64284,1001.206
0.100919724,0.005136684,0.1613792,-0.06636012,0.008318587,0.9847276,0.1600949,5.815348,-22.99923,-31.64297,1001.206
0.121104240,0.005136684,-0.07769579,-0.06636012,0.004943271,0.9847016,0.1576664,5.815348,-22.99923,-31.64297,1001.204
0.141288281,-0.1786891,-0.1972333,-0.005326898,0.01558719,0.981924,0.1605153,5.512202,-23.37076,-30.76581,1001.204
0.161472321,0.06641194,-0.01792703,0.05570632,0.01845691,0.9838899,0.1620098,5.512202,-23.37076,-30.76581,1001.204
0.179132938,0.06641194,-0.01792703,-0.005326898,0.02378538,0.9820698,0.1580732,5.512202,-23.37076,-30.76581,1001.204
0.199316502,0.06641194,-0.07769579,0.05570632,0.01025913,0.9837779,0.1610464,5.831471,-23.74095,-30.76445,1001.204
0.219500542,0.005136684,-0.01792703,0.05570632,0.005890006,0.9861593,0.158667,5.831471,-23.74095,-30.76445,1001.204
0.239685059,0.06641194,-0.07769579,-0.06636012,0.01408169,0.9867365,0.1615859,5.82341,-23.37009,-31.20371,1001.206
0.259869099,0.005136684,-0.01792703,-0.06636012,0.01800978,0.980967,0.1629258,5.82341,-23.37009,-31.20371,1001.206
0.280053139,0.005136684,0.221148,-0.005326898,0.01361672,0.9852473,0.1644767,6.566361,-23.37219,-31.20075,1001.206
0.300237179,-0.1174138,-0.01792703,-0.1273933,0.01609911,0.9795384,0.1575478,6.566361,-23.37219,-31.20075,1001.206
0.320420742,0.005136684,-0.3765396,-0.06636012,0.0151042,0.9818541,0.1668403,6.566361,-23.37219,-31.20075,1001.206
0.340604782,0.1276872,-0.1972333,-0.005326898,0.01752127,0.9814104,0.1663413,6.194885,-23.37114,-31.20223,1001.206
0.360788822,0.1276872,-0.1972333,-0.005326898,0.0155518,0.9848157,0.1620324,6.194885,-23.37114,-31.20223,1001.208
0.380972862,-0.05613857,-0.3765396,0.1167395,0.01365281,0.9824136,0.1571217,6.576067,-23.74151,-31.20062,1001.208
0.401156902,0.06641194,-0.01792703,0.05570632,0.01594698,0.9921702,0.1539054,6.576067,-23.74151,-31.20062,1001.206
0.421340466,0.2502377,0.460223,-0.06636012,0.01022496,0.9867709,0.1523471,6.576067,-23.74151,-31.20062,1001.206
0.441524506,-0.05613857,0.04184172,0.1777728,0.003443759,0.9890393,0.1577544,6.196529,-23.3696,-31.64136,1001.206
0.459186077,-0.3012396,-0.1972333,-0.1273933,0.01269317,0.981828,0.1658701,6.196529,-23.3696,-31.64136,1001.206
0.479369640,-0.1174138,0.221148,-0.005326898,0.06893325,0.9977767,0.1563715,6.18518,-23.00183,-31.20236,1001.206
0.499553681,-0.1174138,-0.07769579,-0.1273933,0.02961851,0.9782327,0.1628546,6.18518,-23.00183,-31.20236,1001.206
0.519737721,0.3727882,-0.1374646,-0.005326898,0.01566197,0.975502,0.1730393,6.18518,-23.00183,-31.20236,1001.204
0.539921761,0.3727882,-0.9742271,-0.3715262,-0.01002509,0.9857977,0.1713345,6.194885,-23.37114,-31.20223,1001.204
0.560105324,0.06641194,-1.153533,-0.3715262,-0.01490508,0.9906518,0.1631657,6.194885,-23.37114,-31.20223,1001.202
0.580289364,-0.3625149,-1.631683,-0.2494598,-0.0375741,0.9909348,0.1495802,5.841204,-24.04717,-31.20348,1001.202
0.600473881,-0.7914416,-2.050065,-0.005326898,-0.02254758,0.9849518,0.1401946,5.841204,-24.04717,-31.20348,1001.202
0.620657921,-0.2399643,-1.273071,-0.1884266,0.05281359,0.9747931,0.1535073,5.841204,-24.04717,-31.20348,1001.204
0.640841961,-0.1786891,0.3406855,0.238806,0.1183637,0.9778792,0.1846137,6.564717,-23.37374,-30.76163,1001.204
0.661026001,0.2502377,1.117679,0.3608724,0.01185027,0.9695633,0.2775435,6.564717,-23.37374,-30.76163,1001.202
0.681210041,1.537018,4.524498,0.05570632,0.06391609,0.9700676,0.3533846,6.576067,-23.74151,-31.20062,1001.202
0.701393604,1.598293,5.062417,0.1167395,0.04763188,0.9635372,0.2058435,6.576067,-23.74151,-31.20062,1001.206
0.721577645,0.6791645,4.703804,0.788105,-0.0656729,0.8396536,0.2648679,6.576067,-23.74151,-31.20062,1001.206
0.739238739,0.3727882,5.480798,0.7270717,-0.1447906,0.9615539,0.2158185,6.566361,-23.37219,-31.20075,1001.206
0.759422779,0.3115129,5.600336,1.276371,-0.06561334,0.9547897,0.2345452,6.566361,-23.37219,-31.20075,1001.206
0.779606819,0.1276872,6.616405,1.215338,0.01409181,0.9450188,0.215258,6.18518,-23.00183,-31.20236,1001.206
0.799790859,-0.05613857,9.24623,1.703603,0.03246014,0.9817545,0.2028202,6.18518,-23.00183,-31.20236,1001.206
0.819974899,0.3115129,11.75652,2.008769,0.0443172,0.9984738,0.1958349,6.18518,-23.00183,-31.20236,1001.204
0.840158463,0.6178893,12.77259,1.947736,0.0364883,0.9677753,0.2015645,6.54695,-22.63356,-31.20101,1001.204
0.860342503,0.7404398,12.35421,1.703603,0.01480278,0.9657685,0.2249127,6.54695,-22.63356,-31.20101,1001.206
0.880526543,0.6791645,11.57721,1.947736,-0.01148439,0.9866725,0.1786527,6.926487,-23.00547,-30.76027,1001.206
0.900710583,0.3727882,11.27837,1.82567,0.0005371252,0.9898396,0.1704258,6.926487,-23.00547,-30.76027,1001.208
0.920894146,0.3727882,11.27837,1.886703,0.03811523,0.9932557,0.1753041,6.939481,-23.3717,-31.6384,1001.208
0.941078186,0.4953387,11.63698,1.703603,0.03144273,0.946443,0.1953106,6.939481,-23.3717,-31.6384,1001.206
0.961262703,1.230642,12.1749,1.520504,0.02195241,0.9744607,0.1408948,6.939481,-23.3717,-31.6384,1001.206
0.981446743,0.4340635,11.39791,1.764637,0.01724533,1.003198,0.2164048,6.937837,-23.37325,-31.19927,1001.206
1.001630783,1.720844,11.69675,1.82567,-0.004612044,0.8971342,0.1788169,6.937837,-23.37325,-31.19927,1001.206
1.019291401,0.3727882,11.93582,2.130836,0.01632285,0.961191,0.1513453,6.928132,-23.00393,-31.1994,1001.204
1.039475441,0.06641194,11.63698,2.130836,0.01959719,0.9703215,0.1150272,6.928132,-23.00393,-31.1994,1001.204
1.059659004,0.4953387,12.35421,2.069803,0.03592323,0.975463,0.1584112,6.928132,-23.00393,-31.1994,1001.204
1.079843044,0.7404398,12.1749,1.947736,0.002116967,0.9795385,0.1366451,6.918426,-22.63461,-31.19953,1001.204
1.100027561,0.6791645,10.91976,1.82567,-0.01003008,0.9863545,0.1640467,6.918426,-22.63461,-31.19953,1001.206
1.120211601,0.556614,9.963455,1.398437,0.03051388,0.9841702,0.1517793,6.947543,-23.74256,-31.19915,1001.206
1.140395641,0.6178893,9.365767,1.520504,0.04459444,1.016439,0.1436387,6.947543,-23.74256,-31.19915,1001.206
1.160579681,0.3115129,9.305999,1.337404,0.02790352,1.000631,0.1491894,6.947543,-23.74256,-31.19915,1001.206
1.180763722,0.4953387,9.126693,1.398437,0.03427129,0.9924083,0.1572893,7.310957,-23.37275,-31.63693,1001.208
1.200947285,0.2502377,8.230162,1.276371,0.02730463,0.9697553,0.1836134,7.310957,-23.37275,-31.63693,1001.208
1.221131325,0.6178893,8.050856,1.154304,0.01945798,0.9811139,0.1502753,7.319018,-23.74361,-31.19767,1001.208
1.241315365,0.6178893,7.034786,1.215338,0.007452503,0.9763635,0.1716087,7.319018,-23.74361,-31.19767,1001.208
1.261499405,0.6178893,6.915248,0.8491381,0.004274508,1.0003,0.1472712,7.319018,-23.74361,-31.19767,1001.21
1.279160500,0.3727882,6.198023,0.9101714,5.734719E-05,0.9900352,0.1499937,7.693783,-23.74157,-32.07445,1001.21
1.299344540,0.3727882,6.018717,1.093271,0.003305173,1.000852,0.1390115,7.693783,-23.74157,-32.07445,1001.208
1.319528580,0.06641194,5.719873,0.9101714,0.03233779,0.9929702,0.1465983,7.680789,-23.37535,-31.19632,1001.208
1.339712143,0.2502377,5.660105,0.7270717,0.02963241,0.9774425,0.1448352,7.680789,-23.37535,-31.19632,1001.21
1.359896183,0.8629903,5.480798,0.4829388,0.01574753,0.9690011,0.1446885,7.680789,-23.37535,-31.19632,1001.21
1.380080223,0.556614,5.062417,0.6660385,0.008402284,1.017719,0.1558818,7.680789,-23.37535,-31.19632,1001.208
1.400264263,-0.1174138,4.584267,0.9712046,0.01369989,1.018195,0.164642,7.680789,-23.37535,-31.19632,1001.208
1.420448303,0.1889624,4.584267,0.6660385,0.01155268,0.9567023,0.1571025,7.682433,-23.3738,-31.63545,1001.21
1.440631867,0.6178893,5.002648,0.7270717,0.03092521,0.989951,0.1557858,7.682433,-23.3738,-31.63545,1001.21
1.460816383,0.6791645,5.241724,0.8491381,-0.006194554,0.9884457,0.1543507,7.682433,-23.3738,-31.63545,1001.206
1.481000424,0.4340635,4.106117,0.8491381,-0.02104045,0.9802747,0.1255022,7.682433,-23.3738,-31.63545,1001.206
1.501184464,0.556614,4.046348,0.4829388,0.02018807,0.9608894,0.1386824,7.682433,-23.3738,-31.63545,1001.21
1.521368504,0.3115129,3.926811,0.7270717,0.02249886,0.9691109,0.1437076,8.032853,-22.63777,-31.1951,1001.21
1.541552544,0.06641194,3.867042,0.8491381,0.01790633,0.9888968,0.1937378,8.032853,-22.63777,-31.1951,1001.206
1.559213162,-0.3012396,3.747504,0.9712046,0.00229882,0.9239001,0.1773901,8.414034,-23.00813,-31.19349,1001.206
1.579397679,-0.1174138,3.687736,0.6660385,0.03163917,0.9703331,0.180699,8.414034,-23.00813,-31.19349,1001.206
1.599581719,0.06641194,4.046348,1.215338,0.02092494,0.9789326,0.1769922,8.414034,-23.00813,-31.19349,1001.206
1.619765282,0.3115129,5.062417,1.154304,-0.02097663,1.014531,0.1402911,8.052264,-23.3764,-31.19484,1001.206
1.639949322,0.1276872,4.823342,1.215338,0.0001478111,0.9820009,0.1785432,8.052264,-23.3764,-31.19484,1001.206
1.660133362,0.1276872,4.464729,0.6050053,0.04566948,0.9269129,0.1827386,8.795216,-23.3785,-31.19188,1001.206
1.680317402,0.3115129,5.361261,0.8491381,0.0502282,0.9884704,0.1873563,8.795216,-23.3785,-31.19188,1001.204
1.700500965,0.2502377,5.719873,1.032238,0.02607545,0.9518418,0.1803412,8.795216,-23.3785,-31.19188,1001.204
1.720685005,0.6178893,5.122186,0.8491381,0.01720731,1.007812,0.1420484,8.053908,-23.37485,-31.63397,1001.206
1.740869045,0.556614,6.078486,0.788105,0.05352473,0.9955572,0.1617026,8.053908,-23.37485,-31.63397,1001.206
1.761053086,0.2502377,6.018717,0.788105,0.005146479,0.967566,0.1758173,8.053908,-23.37485,-31.63397,1001.202
1.781237126,0.4953387,6.496867,0.4829388,0.00419735,0.9659103,0.1947628,8.053908,-23.37485,-31.63397,1001.202
1.801421642,2.211046,7.154324,0.7270717,0.03288332,0.9469295,0.1972645,8.053908,-23.37485,-31.63397,1001.202
1.819082260,-0.4237901,6.556636,0.7270717,0.02686086,0.9661404,0.2054389,8.795216,-23.3785,-31.19188,1001.202
1.839265824,0.4340635,6.915248,1.093271,-0.01570271,1.015958,0.1996752,8.795216,-23.3785,-31.19188,1001.2
1.859449864,0.8629903,7.453167,1.276371,0.01161424,0.991742,0.1417386,8.787154,-23.00764,-31.63114,1001.2
1.879633904,0.3727882,7.991086,1.215338,0.005869437,0.9486914,0.1258108,8.787154,-23.00764,-31.63114,1001.202
1.899817944,0.06641194,7.214092,1.276371,0.001140839,1.020144,0.144749,8.787154,-23.00764,-31.63114,1001.202
1.920002461,0.6178893,6.795711,1.154304,0.03572261,0.9521974,0.1589243,9.104779,-23.37938,-31.19065,1001.206
1.940186501,0.06641194,7.154324,1.032238,0.05317064,0.9848123,0.1697624,9.104779,-23.37938,-31.19065,1001.206
1.960370541,0.1889624,7.512936,1.154304,0.04020157,0.9820589,0.08603408,8.806566,-23.74627,-31.63088,1001.198
1.980554104,0.1276872,7.991086,1.154304,0.02022481,0.9581088,0.1259761,8.806566,-23.74627,-31.63088,1001.198
2.000738144,0.3727882,7.572705,1.45947,-0.02688135,0.9438232,0.1768541,9.104779,-23.37938,-31.19065,1001.198
2.020922184,0.005136684,7.273861,1.032238,-0.02403685,0.9475815,0.1929817,9.104779,-23.37938,-31.19065,1001.198
2.041106224,-0.05613857,6.078486,0.8491381,0.0001163228,0.9455692,0.1388953,9.104779,-23.37938,-31.19065,1001.198
2.061289787,0.3115129,5.540567,0.238806,0.08576218,0.9630487,0.1167325,8.79686,-23.37695,-31.63101,1001.198
2.081473827,0.3727882,5.899179,0.6660385,0.05698648,0.9891547,0.1284829,8.79686,-23.37695,-31.63101,1001.2
2.101657867,0.556614,5.899179,0.4829388,0.01497433,0.9537724,0.1156797,9.468193,-23.00957,-31.62843,1001.2
2.119318962,0.2502377,5.958949,0.788105,0.007633617,1.001895,0.1380527,9.468193,-23.00957,-31.62843,1001.199
2.139503002,0.3727882,5.540567,0.6050053,0.001788858,0.9670637,0.1237475,9.468193,-23.00957,-31.62843,1001.199
2.159687042,0.4953387,5.540567,0.7270717,-0.01013301,0.9962668,0.09271479,9.497337,-24.05441,-32.0672,1001.193
2.179871082,0.8629903,5.600336,0.6660385,-0.003836775,1.033411,0.1187432,9.497337,-24.05441,-32.0672,1001.193
2.200054646,0.1889624,5.480798,0.9101714,0.01477442,0.9702113,0.1189248,9.116129,-23.74714,-31.62965,1001.191
2.220238686,0.4340635,4.823342,0.7270717,0.02501418,1.000921,0.1156249,9.116129,-23.74714,-31.62965,1001.191
2.240422726,0.1276872,4.94288,0.788105,0.0395477,0.9950101,0.1471147,9.116129,-23.74714,-31.62965,1001.195
2.260606766,0.3115129,4.94288,0.6660385,0.03078864,1.000961,0.1691417,9.468193,-23.00957,-31.62843,1001.195
2.280791283,0.1276872,4.464729,0.6050053,-0.01283743,0.9798492,0.1318074,9.468193,-23.00957,-31.62843,1001.193
2.300975323,0.6178893,4.165886,0.5439721,0.01197729,0.9626118,0.09931505,9.095074,-23.01006,-31.19078,1001.193
2.321159363,0.1889624,4.345192,0.7270717,0.02400571,1.004056,0.1400177,9.095074,-23.01006,-31.19078,1001.191
2.341342926,0.2502377,5.062417,0.788105,0.03101714,1.021684,0.180743,9.095074,-23.01006,-31.19078,1001.191
2.361526966,0.3115129,5.062417,0.7270717,-0.009007776,0.9824249,0.122121,9.860724,-23.7477,-32.06582,1001.187
2.379187584,0.4953387,4.703804,0.4829388,-0.007281277,0.9986849,0.146283,9.860724,-23.7477,-32.06582,1001.187
2.399372101,0.1889624,4.345192,0.7270717,0.0152295,0.9718517,0.1496116,9.849375,-23.37993,-31.62682,1001.187
2.419556141,0.6178893,4.345192,0.788105,0.02727496,1.012767,0.1460244,9.849375,-23.37993,-31.62682,1001.187
2.439740181,0.06641194,3.747504,0.6050053,0.002332205,0.9614581,0.1523443,9.849375,-23.37993,-31.62682,1001.191
2.459924221,0.3727882,3.329123,0.4829388,0.006834707,1.027095,0.1852649,10.22085,-23.38098,-31.62535,1001.191
2.480107784,0.1889624,2.611898,0.4219056,0.02200414,1.009656,0.1586218,10.22085,-23.38098,-31.62535,1001.189
2.500291824,0.2502377,2.850973,0.5439721,0.01024692,0.984708,0.1649575,9.841313,-23.00907,-32.06608,1001.189
2.520475865,0.4953387,2.073979,0.2998392,0.03254228,0.9759407,0.1540464,9.841313,-23.00907,-32.06608,1001.189
2.540659905,0.1889624,2.193517,0.238806,-0.004831145,0.9951563,0.1637267,9.841313,-23.00907,-32.06608,1001.189
2.560843468,0.4953387,2.253286,0.6050053,0.02152468,1.008909,0.1843968,10.21921,-23.38253,-31.18621,1001.189
2.581027508,1.169366,1.775136,0.6050053,-0.009102562,0.9901019,0.1295719,10.21921,-23.38253,-31.18621,1001.189
2.601211548,0.6178893,2.611898,0.3608724,0.02743573,1.039524,0.1353622,10.21756,-23.38407,-30.74709,1001.189
2.621396065,0.06641194,2.731436,0.7270717,0.007412567,1.020464,0.1218766,10.21756,-23.38407,-30.74709,1001.189
2.641580105,-0.4237901,3.030279,0.4829388,0.02883623,0.9632227,0.1606123,10.59233,-23.38203,-31.62387,1001.193
2.659240723,0.06641194,3.090048,0.788105,0.005763247,0.9960411,0.188058,10.59233,-23.38203,-31.62387,1001.193
2.679424763,0.1276872,2.970511,0.6660385,0.009487245,0.9676883,0.1699743,10.59233,-23.38203,-31.62387,1001.193
2.699608803,0.3727882,3.269354,0.788105,0.006350626,0.9882584,0.1431371,10.22085,-23.38098,-31.62535,1001.193
2.719793320,0.1889624,3.030279,0.3608724,0.02068709,0.959376,0.145464,10.22085,-23.38098,-31.62535,1001.193
2.739976883,0.3115129,3.090048,0.4219056,0.02986009,0.9980983,0.1632474,9.829964,-22.6413,-31.62708,1001.193
2.760160923,-0.1174138,3.090048,0.5439721,0.002570873,0.9810824,0.1770617,9.829964,-22.6413,-31.62708,1001.193
2.780344963,-0.2399643,3.209586,0.5439721,0.03600029,0.9276435,0.2411576,9.829964,-22.6413,-31.62708,1001.192
2.800529003,0.3115129,3.329123,0.3608724,0.02899928,0.9495547,0.1710465,9.849375,-23.37993,-31.62682,1001.192
2.820713043,0.2502377,3.388892,0.5439721,0.01005933,1.000226,0.1633186,9.849375,-23.37993,-31.62682,1001.197
2.840896607,0.1276872,3.568198,0.5439721,0.01731312,0.959461,0.1318462,10.58262,-23.01272,-31.62399,1001.197
2.861080647,0.3115129,3.269354,0.4219056,0.016298,0.9639845,0.1139335,10.58262,-23.01272,-31.62399,1001.197
2.881264687,0.1889624,3.568198,0.6050053,0.01344757,0.9607055,0.09830199,10.58262,-23.01272,-31.62399,1001.197
2.901448727,0.1889624,3.269354,0.3608724,0.007153986,1.001133,0.1652872,10.20144,-22.64235,-31.6256,1001.197
2.921632290,0.556614,2.552129,0.3608724,0.009333124,0.9801559,0.1828725,10.20144,-22.64235,-31.6256,1001.197
2.939293861,0.556614,2.970511,0.3608724,0.0283243,0.9656084,0.1635798,10.22085,-23.38098,-31.62535,1001.197
2.959477901,1.046816,2.910742,0.3608724,0.00220826,1.011218,0.1669538,10.22085,-23.38098,-31.62535,1001.197
2.979661465,0.6791645,3.627967,0.1777728,-0.007626,0.9877452,0.1251438,10.22085,-23.38098,-31.62535,1001.197
2.999845505,0.2502377,3.568198,0.5439721,0.01274642,1.056796,0.1795184,10.59874,-23.75444,-30.74548,1001.197
3.020029545,-0.05613857,4.046348,0.3608724,0.03188878,0.9502462,0.154512,10.59874,-23.75444,-30.74548,1001.196
3.040213585,0.06641194,4.404961,0.6660385,0.02103144,0.9693148,0.2186482,10.22249,-23.37944,-32.06448,1001.196
3.060397625,0.06641194,4.823342,0.9101714,0.008937649,0.9727773,0.1934319,10.22249,-23.37944,-32.06448,1001.194
3.080582142,0.3727882,5.42103,0.7270717,-0.007216402,0.9527673,0.1838145,10.22249,-23.37944,-32.06448,1001.194
3.100765705,-0.2399643,5.361261,0.9101714,0.0177336,1.002735,0.2149352,10.59068,-23.38358,-31.18473,1001.198
3.120949745,-0.2399643,5.660105,0.9101714,0.01431659,1.00508,0.2665648,10.59068,-23.38358,-31.18473,1001.198
3.141133785,0.3115129,5.958949,0.9712046,0.02642596,0.9632593,0.1533178,10.58098,-23.01426,-31.18486,1001.198
3.161317825,-0.8527169,6.616405,1.154304,0.0002589964,0.9340944,0.1235838,10.58098,-23.01426,-31.18486,1001.198
3.181501865,0.4340635,7.094555,1.154304,0.07376433,0.9976053,0.1320316,10.59397,-23.38049,-32.063,1001.2
3.199162960,0.06641194,7.991086,1.337404,0.06762733,0.9851541,0.2057554,10.59397,-23.38049,-32.063,1001.2
3.219347000,0.3115129,8.409468,1.215338,-0.003697177,0.9810666,0.1692852,10.59397,-23.38049,-32.063,1001.201
3.239531040,0.2502377,7.512936,1.093271,-0.040734,1.01249,0.1699615,10.96216,-23.38463,-31.18326,1001.201
3.259714603,0.4953387,6.198023,0.9101714,-0.01907546,0.9764977,0.167271,10.96216,-23.38463,-31.18326,1001.201
3.279898644,0.3727882,5.122186,0.788105,0.0159075,0.9947239,0.1894768,10.2095,-23.01321,-31.18634,1001.201
3.300082684,0.2502377,4.644036,0.7270717,0.04049878,0.995858,0.1607545,10.2095,-23.01321,-31.18634,1001.201
3.320266724,-0.1786891,5.540567,0.4829388,0.05807813,1.017029,0.202021,10.2095,-23.01321,-31.18634,1001.201
3.340450287,-0.05613857,5.958949,0.6050053,0.04433906,0.9577264,0.1517222,11.32393,-23.01637,-31.18191,1001.203
3.360634327,0.3115129,6.496867,1.215338,-0.02209785,0.9871202,0.1665125,11.32393,-23.01637,-31.18191,1001.203
3.380818367,0.556614,6.975017,1.154304,-0.02840366,0.99077,0.1310732,10.9638,-23.38308,-31.62239,1001.203
3.401002407,0.1889624,7.273861,1.276371,-0.01223411,0.9695064,0.1496055,10.9638,-23.38308,-31.62239,1001.203
3.421186924,0.1889624,7.273861,1.398437,0.02514391,0.9893469,0.1591884,10.9638,-23.38308,-31.62239,1001.207
3.441370964,0.06641194,7.752011,1.093271,0.02500015,0.9620552,0.1260472,11.33363,-23.38568,-31.18178,1001.207
3.461555004,-0.05613857,7.512936,1.337404,0.0245572,0.9981546,0.1496319,11.33363,-23.38568,-31.18178,1001.207
3.479215145,0.4340635,7.214092,1.398437,0.008984777,0.970856,0.09413015,10.95245,-23.01531,-31.18339,1001.207
3.499399185,0.1889624,6.915248,1.032238,0.0434265,0.9929224,0.1679909,10.95245,-23.01531,-31.18339,1001.205
3.519583225,0.1889624,7.034786,1.215338,-0.001935432,0.9953923,0.1442636,10.95245,-23.01531,-31.18339,1001.205
3.539767742,0.4953387,6.795711,1.032238,0.03043816,0.990515,0.1470391,11.32393,-23.01637,-31.18191,1001.201
3.559951782,0.3727882,6.676174,0.9101714,0.01606425,0.9824736,0.1546865,11.32393,-23.01637,-31.18191,1001.201
3.580135822,0.4953387,6.37733,0.9712046,0.009457022,0.9700377,0.1773196,11.31422,-22.64705,-31.18204,1001.203
3.600319863,0.005136684,6.018717,0.8491381,0.028074,0.9073159,0.1293386,11.31422,-22.64705,-31.18204,1001.203
3.620503426,0.2502377,6.198023,0.6050053,0.03208829,0.9734201,0.1632423,11.31422,-22.64705,-31.18204,1001.203
3.640687466,-0.5463406,5.660105,1.093271,0.04621518,0.9611471,0.2004458,11.71482,-23.75604,-31.18017,1001.203
3.660871506,0.8629903,5.779642,0.8491381,-0.02603885,0.9957007,0.07715616,11.71482,-23.75604,-31.18017,1001.205
3.681055546,0.06641194,4.883111,0.788105,0.04561364,0.9726067,0.118927,11.33528,-23.38413,-31.62091,1001.205
3.701239109,-0.1786891,5.480798,0.9101714,0.01118014,1.027603,0.1405026,11.33528,-23.38413,-31.62091,1001.205
3.721423149,0.005136684,4.524498,0.8491381,0.01709742,0.9775026,0.1200389,11.31422,-22.64705,-31.18204,1001.205
3.741607189,-0.3012396,4.703804,0.7270717,0.01727657,1.001903,0.1516631,11.31422,-22.64705,-31.18204,1001.205
3.759268284,-0.3625149,4.763573,0.7270717,0.0191724,1.005983,0.08507869,11.31422,-22.64705,-31.18204,1001.205
3.779452324,0.005136684,5.002648,0.9101714,0.01098349,0.9650192,0.09936416,11.6954,-23.01741,-31.18043,1001.205
3.799636364,-0.05613857,4.883111,0.7270717,-0.003129701,1.015162,0.1032968,11.6954,-23.01741,-31.18043,1001.205
3.819820404,0.06641194,4.883111,0.7270717,0.007366839,1.02444,0.111737,12.00497,-23.01829,-31.1792,1001.205
3.840003967,0.005136684,5.002648,0.788105,0.00943915,0.9724385,0.1306548,12.00497,-23.01829,-31.1792,1001.207
3.860188008,0.1889624,4.703804,0.5439721,0.001606151,0.9820158,0.1303693,12.00497,-23.01829,-31.1792,1001.207
3.880372524,0.005136684,4.225655,0.6660385,0.01180258,0.9762862,0.1370531,11.70511,-23.38673,-31.1803,1001.207
3.900556565,0.06641194,4.285423,0.7270717,0.01432911,1.007085,0.1133296,11.70511,-23.38673,-31.1803,1001.207
3.920740605,0.1889624,4.404961,0.4219056,0.02456046,0.9587783,0.1138183,12.38779,-23.38711,-31.61672,1001.207
3.940924644,0.1276872,4.763573,0.9101714,0.006451106,0.9800824,0.1371361,12.38779,-23.38711,-31.61672,1001.207
3.961108685,0.005136684,4.94288,0.6050053,0.01047109,0.9673663,0.1062236,12.38779,-23.38711,-31.61672,1001.213
3.981292248,-0.05613857,4.763573,0.6050053,0.0263609,0.9695157,0.1086757,12.37644,-23.01934,-31.17772,1001.213
4.001476288,-0.1786891,4.464729,0.6660385,0.002274855,0.9664127,0.141251,12.37644,-23.01934,-31.17772,1001.213
4.019137859,-0.05613857,4.106117,0.6660385,0.001456137,0.9542075,0.1492826,11.69705,-23.01587,-31.61956,1001.213
4.039321423,-0.2399643,4.106117,0.7270717,0.02181841,0.9856827,0.1328451,11.69705,-23.01587,-31.61956,1001.213
4.059505463,0.005136684,4.106117,0.7270717,0.01915777,1.005744,0.158062,11.69705,-23.01587,-31.61956,1001.213
4.079689503,0.2502377,4.404961,0.788105,0.007702587,0.995962,0.1500998,12.38615,-23.38866,-31.17759,1001.213
4.099873543,-0.05613857,3.926811,0.6660385,0.01013546,0.9939155,0.1646533,12.38615,-23.38866,-31.17759,1001.213
4.120057106,-0.2399643,3.807273,0.3608724,0.0188518,0.9912202,0.1563152,12.37809,-23.0178,-31.61685,1001.213
4.140241146,-0.3625149,3.568198,0.4219056,0.02884391,0.9628881,0.1455215,12.37809,-23.0178,-31.61685,1001.213
4.160425186,-0.2399643,3.687736,0.4219056,0.02526548,0.9790356,0.1730952,12.37809,-23.0178,-31.61685,1001.213
4.180609226,-0.1174138,3.269354,0.4219056,0.008945446,0.9724522,0.1773681,12.37644,-23.01934,-31.17772,1001.213
4.200793743,-0.1786891,2.970511,0.4219056,0.006414546,0.9828775,0.148383,12.37644,-23.01934,-31.17772,1001.211
4.220977783,0.3727882,2.372823,0.4829388,0.003850796,0.9954348,0.1486353,12.38615,-23.38866,-31.17759,1001.211
4.241161346,-0.2399643,2.133748,0.1777728,0.02180341,0.9863811,0.1601078,12.38615,-23.38866,-31.17759,1001.211
4.261345387,-0.1174138,1.356754,0.3608724,0.008799998,0.9846672,0.1669052,12.38615,-23.38866,-31.17759,1001.211
4.281529427,-0.05613857,1.296986,0.238806,0.03126546,1.001491,0.1652588,12.75762,-23.38971,-31.17611,1001.211
4.299190044,-0.2399643,1.177448,0.1167395,0.03743895,0.9695565,0.1699702,12.75762,-23.38971,-31.17611,1001.211
4.319374561,-0.05613857,0.9981418,0.05570632,0.0122418,0.9795246,0.1531739,12.74792,-23.02039,-31.17624,1001.211
4.339558601,-0.2399643,0.6395292,-0.005326898,0.02247716,0.9702261,0.1777908,12.74792,-23.02039,-31.17624,1001.211
4.359742642,0.005136684,0.5199918,-0.3715262,0.002858997,0.9573926,0.1722131,12.74792,-23.02039,-31.17624,1001.211
4.379926682,-0.2399643,0.5199918,-0.005326898,0.01715996,0.9710388,0.1856001,12.38615,-23.38866,-31.17759,1001.211
4.400110245,0.005136684,0.3406855,-0.06636012,0.001084909,0.984601,0.1620493,12.38615,-23.38866,-31.17759,1001.209
4.420294285,-0.2399643,0.4004543,-0.005326898,0.02202991,0.9672935,0.1796798,12.3845,-23.3902,-30.73846,1001.209
4.440478325,0.1276872,0.7590668,0.1777728,0.02476686,0.9805829,0.1629082,12.3845,-23.3902,-30.73846,1001.209
4.460662365,0.06641194,0.938373,0.1167395,0.02414301,0.9921374,0.1694634,13.11939,-23.02144,-31.17476,1001.209
4.480845928,0.005136684,1.356754,-0.005326898,0.01848944,0.9807617,0.1843308,13.11939,-23.02144,-31.17476,1001.213
4.501029968,-0.3625149,1.177448,-0.06636012,0.02484217,0.9742043,0.1710539,13.11939,-23.02144,-31.17476,1001.213
4.521214008,-0.3012396,1.476292,0.2998392,0.02180956,0.9859208,0.1576658,12.76897,-23.75748,-31.61511,1001.213
4.541398525,0.005136684,1.894673,0.238806,0.00205042,0.9847022,0.1532914,12.76897,-23.75748,-31.61511,1001.213
4.561582565,-0.4850653,1.536061,0.3608724,-0.0001982655,0.9313034,0.1600232,13.12104,-23.0199,-31.61389,1001.209
4.579243183,-0.4237901,1.177448,0.4219056,-0.01913661,0.9811384,0.1877996,13.12104,-23.0199,-31.61389,1001.209
4.599427223,-0.1174138,0.4004543,0.05570632,0.01946172,0.9398372,0.2083353,13.12104,-23.0199,-31.61389,1001.209
4.619610787,0.06641194,0.221148,-0.005326898,0.03812405,0.9920456,0.1996095,12.37809,-23.0178,-31.61685,1001.209
4.639795780,0.3115129,0.1613792,-0.1273933,0.03089423,0.9922376,0.1694555,12.37809,-23.0178,-31.61685,1001.209
4.659979344,0.1276872,0.2809168,-0.1273933,0.02431287,0.9780622,0.1721042,12.39421,-23.75951,-30.73833,1001.209
4.680163384,0.2502377,-0.6156146,-0.310493,0.03068058,0.9698344,0.1806905,12.39421,-23.75951,-30.73833,1001.207
4.700347424,-0.1786891,-0.6753834,0.2998392,0.02754569,0.9895775,0.1883847,12.39421,-23.75951,-30.73833,1001.207
4.720531464,-0.3012396,-0.9144584,-0.06636012,-0.03037903,0.9936876,0.1758998,12.75762,-23.38971,-31.17611,1001.207
4.740715504,-0.6076158,-2.050065,-0.1884266,-0.009472075,0.9800217,0.1682998,12.75762,-23.38971,-31.17611,1001.207
4.760899067,-0.6076158,-2.28914,-0.6156591,0.02927575,1.006132,0.1828707,12.02273,-23.75846,-30.73981,1001.207
4.781083107,-0.7301663,-2.76729,-0.4935927,0.03299852,0.9776777,0.1750033,12.02273,-23.75846,-30.73981,1001.207
4.801267147,-0.9752674,-2.886827,-0.310493,0.003252893,0.9646409,0.174789,12.02273,-23.75846,-30.73981,1001.207
4.821451187,-0.6688911,-3.125902,-0.2494598,0.01750327,1.022476,0.1783456,12.39585,-23.75797,-31.17746,1001.207
4.841634751,-0.7914416,-3.902896,-0.3715262,-0.006715659,0.9504268,0.2251273,12.39585,-23.75797,-31.17746,1001.207
4.859296322,-0.1786891,-4.799428,-0.6766923,0.0009581409,0.954836,0.1828702,12.37809,-23.0178,-31.61685,1001.207
4.879480362,-0.6688911,-4.799428,-0.310493,0.02777993,0.97016,0.1923793,12.37809,-23.0178,-31.61685,1001.207
4.899663925,0.3727882,-5.456884,-0.6766923,0.04024858,0.9762499,0.1832364,12.37809,-23.0178,-31.61685,1001.211
4.919847965,-0.2399643,-5.277577,-0.4325595,0.0121566,0.9860545,0.1786058,12.37644,-23.01934,-31.17772,1001.211
4.940032005,-0.7301663,-5.397115,-0.4935927,0.03189346,0.9883401,0.2219283,12.37644,-23.01934,-31.17772,1001.211
4.960216045,-0.2399643,-4.918965,-0.310493,-0.001269695,1.01919,0.1885265,11.70511,-23.38673,-31.1803,1001.211
4.980400562,-0.4850653,-5.15804,-0.6766923,-0.001927744,0.9147971,0.1606722,11.70511,-23.38673,-31.1803,1001.213
5.000584602,0.005136684,-4.560352,-0.6766923,0.0284848,0.9933136,0.1062241,12.01303,-23.38915,-30.73994,1001.213
5.020768166,0.3727882,-4.261509,-0.6156591,0.02156549,1.045141,0.1953322,12.01303,-23.38915,-30.73994,1001.211
5.040952206,0.4953387,-4.082202,-0.5546259,-0.001004839,0.9201024,0.06686464,12.01303,-23.38915,-30.73994,1001.211
5.061136246,-0.4850653,-4.20174,-0.3715262,0.007357303,1.064267,0.1509656,12.00497,-23.01829,-31.1792,1001.211
5.081320286,-0.7914416,-3.663821,-0.310493,-0.03619488,0.9573681,0.1163125,12.00497,-23.01829,-31.1792,1001.211
5.101504326,-0.9139921,-4.321278,-0.2494598,-0.003134051,1.013833,0.1884232,12.01467,-23.3876,-31.17907,1001.211
5.119165421,-0.4850653,-4.321278,-0.3715262,0.003629835,1.013042,0.1806122,12.01467,-23.3876,-31.17907,1001.211
5.139349461,-0.3012396,-4.739659,-0.5546259,0.02900597,0.949138,0.164226,12.01467,-23.3876,-31.17907,1001.211
5.159533024,0.1889624,-4.859196,-0.6156591,0.04040175,1.004319,0.1380525,12.00497,-23.01829,-31.1792,1001.211
5.179717064,0.1889624,-5.397115,-1.103925,0.04348847,1.027996,0.1492215,12.00497,-23.01829,-31.1792,1001.213
5.199901104,0.06641194,-4.859196,-0.9818584,0.02286737,0.9375235,0.2024455,11.31751,-22.64396,-32.0603,1001.213
5.220085144,0.556614,-4.739659,-0.9818584,0.0353054,0.9855757,0.2126234,11.31751,-22.64396,-32.0603,1001.215
5.240269184,0.2502377,-3.962665,-0.5546259,-0.03347542,0.9701812,0.1963623,11.31751,-22.64396,-32.0603,1001.215
5.260452747,0.8629903,-4.321278,-0.6156591,-0.03335002,1.000802,0.1380912,12.00497,-23.01829,-31.1792,1001.215
5.280636787,0.3115129,-4.799428,-0.7987587,-0.008757007,1.038817,0.2502358,12.00497,-23.01829,-31.1792,1001.215
5.300821304,0.4340635,-5.217809,-1.103925,0.04154171,0.9094939,0.1741279,11.33199,-23.38722,-30.74265,1001.215
5.321005344,0.1889624,-5.397115,-0.7987587,0.05527607,1.049638,0.183207,11.33199,-23.38722,-30.74265,1001.215
5.341189385,0.2502377,-4.261509,-0.7987587,0.03165158,0.9703894,0.1262024,11.33199,-23.38722,-30.74265,1001.215
5.361373425,-0.05613857,-4.978734,-0.9208252,0.02206049,0.9649731,0.1694155,11.34169,-23.75654,-30.74252,1001.215
5.381556988,0.005136684,-4.859196,-0.7377256,0.0165721,0.9410751,0.1280773,11.34169,-23.75654,-30.74252,1001.215
5.399217606,0.4953387,-5.277577,-0.859792,0.01927002,0.9956316,0.2006813,11.70347,-23.38828,-30.74117,1001.215
5.419402599,0.2502377,-5.456884,-1.164958,-0.01647387,0.9612514,0.145069,11.70347,-23.38828,-30.74117,1001.215
5.439586163,-0.6688911,-6.054571,-1.042892,0.06533604,0.8953736,0.2166331,11.70347,-23.38828,-30.74117,1001.215
5.459770203,-0.3012396,-5.994802,-1.103925,0.01816,1.007823,0.1911925,11.33199,-23.38722,-30.74265,1001.215
5.479954243,0.801715,-6.293646,-1.042892,0.02090511,0.9405555,0.1869376,11.33199,-23.38722,-30.74265,1001.215
5.500138283,-0.7301663,-5.875265,-0.4935927,0.009881077,1.053253,0.2393027,11.33363,-23.38568,-31.18178,1001.213
5.520321846,0.9855408,-6.11434,-2.080456,0.03512727,0.8800301,0.2528678,11.33363,-23.38568,-31.18178,1001.213
5.540505886,-0.7301663,-6.831565,-0.4935927,0.05848591,0.9819013,0.2757729,11.32087,-23.01923,-30.36638,1001.213
5.560689926,1.230642,-5.456884,-1.103925,-0.06138178,0.967214,0.06301981,11.32087,-23.01923,-30.36638,1001.213
5.580873966,-0.1786891,-6.11434,-0.859792,-0.00518428,0.9854605,0.1148766,11.32087,-23.01923,-30.36638,1001.211
5.601058006,0.801715,-5.217809,-0.4325595,-0.03811705,1.076835,0.08607845,11.31258,-22.64859,-30.74291,1001.211
5.621241570,-0.05613857,-6.174109,-0.859792,-0.02839068,1.029549,0.1294077,11.31258,-22.64859,-30.74291,1001.206
5.641426563,0.005136684,-5.397115,-0.7987587,0.0504147,0.9757712,0.05134698,11.32557,-23.01482,-31.62104,1001.206
5.661610127,-0.05613857,-5.994802,-0.859792,0.08253007,0.9515914,0.09461409,11.32557,-23.01482,-31.62104,1001.206
5.679270744,-0.05613857,-5.695959,-0.9818584,0.01750213,0.9450303,0.07268329,11.32557,-23.01482,-31.62104,1001.206
5.699454785,-0.05613857,-6.054571,-0.5546259,-0.03116917,0.9393513,0.1816378,11.33199,-23.38722,-30.74265,1001.204
5.719638825,0.6178893,-6.59249,-1.714257,0.05753529,0.9830311,0.1604756,11.33199,-23.38722,-30.74265,1001.204
5.739823342,0.3115129,-7.309715,-0.9208252,0.01147357,0.9627672,0.1805788,10.97831,-24.06325,-30.74389,1001.204
5.760007382,0.2502377,-7.07064,-1.409091,-0.03259766,0.9795108,0.08755027,10.97831,-24.06325,-30.74389,1001.204
5.780191422,-0.4850653,-7.010871,-0.7377256,0.01849834,0.9408817,0.1504536,10.97831,-24.06325,-30.74389,1001.206
5.800374985,0.3115129,-6.831565,-0.7987587,0.02355628,0.9197127,0.2405323,10.96216,-23.38463,-31.18326,1001.206
5.820559025,-0.7914416,-6.532722,-1.348058,0.04288406,0.9976333,0.1807362,10.96216,-23.38463,-31.18326,1001.206
5.840743065,0.1889624,-5.935034,-1.103925,0.07026466,1.285181,0.1995248,10.58904,-23.38512,-30.74561,1001.206
5.860927105,-0.4237901,-5.516653,-0.7987587,-0.02808915,1.004059,0.1595577,10.58904,-23.38512,-30.74561,1001.206
5.881110668,-0.2399643,-6.353415,-1.103925,-0.03129884,0.9905773,0.1461578,10.58904,-23.38512,-30.74561,1001.206
5.901294708,-0.6076158,-8.086709,-0.9818584,-0.01671237,0.9000561,0.2080877,10.58098,-23.01426,-31.18486,1001.207
5.921478749,-0.2399643,-7.010871,-1.531157,0.02193136,0.9756289,0.1696265,10.58098,-23.01426,-31.18486,1001.207
5.939139843,0.2502377,-7.429253,-0.7987587,-0.0387934,1.011545,0.1704265,10.60039,-23.75289,-31.18461,1001.207
5.959323883,0.1276872,-6.831565,-1.042892,-0.06577134,0.9698448,0.1331468,10.60039,-23.75289,-31.18461,1001.2
5.979507923,-0.3625149,-8.624627,-0.4935927,-0.01733907,0.9926064,0.1578555,10.60039,-23.75289,-31.18461,1001.2
5.999691963,-0.3625149,-6.59249,-0.7377256,0.004755394,1.000196,0.1584599,9.838025,-23.01216,-31.18782,1001.2
6.019876003,0.8629903,-6.472953,-1.042892,-0.01794255,1.084167,0.06089145,9.838025,-23.01216,-31.18782,1001.2
6.040059567,0.6791645,-6.293646,-1.042892,0.02441406,1.01153,0.07106975,10.20645,-23.01608,-30.37082,1001.201
6.060244083,-0.7301663,-6.11434,-0.6766923,0.01184038,1.013239,0.12416,10.20645,-23.01608,-30.37082,1001.201
6.080428123,-0.6076158,-6.831565,-0.3715262,0.03582892,1.022826,0.1705402,10.20645,-23.01608,-30.37082,1001.201
6.100612164,-0.05613857,-7.190178,-0.6766923,-0.02065348,0.9502127,0.03050882,9.834971,-23.01503,-30.37229,1001.201
6.120796204,0.1276872,-8.803934,-0.7987587,-0.04008788,0.8422536,0.04105194,9.834971,-23.01503,-30.37229,1001.203
6.140980244,-0.1786891,-8.624627,-2.324589,0.1039973,1.129037,0.1647569,9.844677,-23.38434,-30.37217,1001.203
6.161163807,-0.7301663,-8.564858,-1.287024,0.06532298,0.8991422,0.08095005,9.844677,-23.38434,-30.37217,1001.195
6.181347847,-1.097818,-8.026939,-1.714257,0.0676583,0.9035742,0.1749456,9.484317,-23.75129,-30.74991,1001.195
6.201531887,-0.3625149,-8.863703,-1.409091,0.06731899,0.9317582,0.1662587,9.484317,-23.75129,-30.74991,1001.201
6.219192982,-0.4850653,-8.266015,-1.714257,0.01445641,0.916986,0.1110597,9.484317,-23.75129,-30.74991,1001.201
6.239377022,-0.5463406,-9.640697,-1.348058,-0.001564333,0.9253426,0.1238998,10.60683,-24.0622,-30.74537,1001.201
6.259561062,-0.9752674,-10.05908,-1.225991,0.02714768,0.9046369,0.1049576,10.60683,-24.0622,-30.74537,1001.201
6.279745102,-1.649295,-10.7763,-1.225991,0.08406316,0.8639519,0.1395897,9.484317,-23.75129,-30.74991,1001.203
6.299928665,-1.71057,-10.29815,-0.9208252,0.07035688,0.9195089,0.1845021,9.484317,-23.75129,-30.74991,1001.203
6.320112705,-0.6688911,-9.879771,-1.348058,0.05016327,0.9144759,0.1732407,9.484317,-23.75129,-30.74991,1001.201
6.340296745,0.7404398,-9.580928,-1.836323,0.02534219,1.012419,0.1781351,9.47461,-23.38197,-30.75004,1001.201
6.360480785,1.414468,-9.162546,-1.897357,-0.03135537,1.035246,0.1368236,9.47461,-23.38197,-30.75004,1001.195
6.380665302,0.3727882,-10.7763,-1.77529,-0.0001066236,0.9630122,0.1874129,9.482907,-23.75261,-30.37352,1001.195
6.400849342,0.1889624,-9.700465,-1.531157,0.004758508,0.9598382,0.1727453,9.482907,-23.75261,-30.37352,1001.197
6.421033383,0.005136684,-8.803934,-1.225991,-0.07152243,1.007505,0.08913463,9.482907,-23.75261,-30.37352,1001.197
6.441216946,-0.1786891,-8.744164,-1.470124,-0.04866012,1.030851,0.1143791,9.484317,-23.75129,-30.74991,1001.197
6.461400986,-0.3012396,-8.684396,-1.287024,0.02108956,0.9276872,0.06795549,9.484317,-23.75129,-30.74991,1001.197
6.481585026,-0.9139921,-8.206246,-1.042892,0.07841389,0.9322221,0.1360832,8.803278,-23.74936,-30.75262,1001.201
6.499246121,-1.036543,-7.249947,-0.6156591,0.01838697,0.951066,0.1005369,8.803278,-23.74936,-30.75262,1001.201
6.519430161,-1.649295,-6.831565,-0.3715262,0.03064217,0.9338002,0.149809,8.803278,-23.74936,-30.75262,1001.201
6.539614201,-0.7914416,-6.353415,-0.3715262,0.02391775,0.9707125,0.1797446,9.112841,-23.75023,-30.75139,1001.201
6.559798241,-0.8527169,-5.576421,-1.103925,0.02454566,0.960463,0.09049552,9.112841,-23.75023,-30.75139,1001.197
6.579981804,-0.1786891,-5.815496,-0.7377256,0.01980208,1.031647,0.185336,8.430158,-23.74985,-30.31497,1001.197
6.600165844,0.4340635,-6.652259,-0.6766923,-0.008460556,0.936524,0.1586789,8.430158,-23.74985,-30.31497,1001.197
6.620349884,-0.9752674,-5.456884,-1.042892,0.1007581,1.077354,0.1924474,8.430158,-23.74985,-30.31497,1001.197
6.640533924,-0.9752674,-5.277577,-0.6156591,-0.006886864,0.9663299,0.1359103,8.791927,-23.38159,-30.31362,1001.197
6.660717487,-0.1174138,-5.337346,-0.7987587,0.01915542,0.926257,0.1603815,8.791927,-23.38159,-30.31362,1001.197
6.680901528,-0.5463406,-5.337346,-0.4935927,0.01715456,0.9715617,0.1817177,8.438246,-24.05761,-30.31487,1001.199
6.701085568,0.06641194,-4.620121,-0.859792,0.01501111,0.9896713,0.1601829,8.438246,-24.05761,-30.31487,1001.199
6.721270085,0.2502377,-4.440815,-0.859792,0.0255506,0.9957134,0.1529882,8.809957,-24.05844,-30.37612,1001.199
6.741454125,0.005136684,-3.783359,-0.7377256,-0.004320621,0.9926549,0.172435,8.809957,-24.05844,-30.37612,1001.199
6.761638165,0.6791645,-3.663821,-0.5546259,-0.01613854,1.013,0.1553379,8.809957,-24.05844,-30.37612,1001.199
6.779298783,0.3727882,-3.24544,-0.7377256,-0.006695442,0.9898047,0.1631369,8.045923,-23.38235,-29.50105,1001.199
6.799482823,0.1276872,-3.364977,-0.5546259,-0.01325325,1.013343,0.1738307,8.045923,-23.38235,-29.50105,1001.199
6.819667340,0.3115129,-3.066133,-0.310493,-0.01872629,1.027451,0.160007,8.431802,-23.74831,-30.7541,1001.199
6.839850903,0.556614,-3.24544,-0.4935927,-0.006444774,1.009452,0.1367631,8.431802,-23.74831,-30.7541,1001.201
6.860034943,0.005136684,-3.006365,-0.3715262,-0.003446975,1.000675,0.1468033,8.431802,-23.74831,-30.7541,1001.201
6.880218983,0.3727882,-2.827059,-0.5546259,0.005163133,1.006649,0.1435028,8.808312,-24.05999,-29.93699,1001.201
6.900403023,0.2502377,-3.006365,-0.3715262,0.007274643,0.9917163,0.1378517,8.808312,-24.05999,-29.93699,1001.201
6.920587063,0.06641194,-2.647752,-0.4935927,0.006850465,0.9868126,0.1431078,8.800224,-23.75223,-29.9371,1001.203
6.940770626,0.1276872,-2.946596,-0.4935927,0.008386712,0.9796943,0.1303134,8.800224,-23.75223,-29.9371,1001.203
6.960954666,-0.1174138,-3.185671,-0.3715262,0.01211889,0.9500782,0.1418864,8.800224,-23.75223,-29.9371,1001.201
6.981138706,-0.4850653,-3.125902,-0.3715262,0.03336493,0.9478555,0.1534893,8.428748,-23.75117,-29.93857,1001.201
7.001322746,-0.1786891,-2.886827,-0.4935927,0.02742575,0.9603772,0.1522861,8.428748,-23.75117,-29.93857,1001.201
7.021506310,-0.05613857,-3.006365,-0.4935927,0.03035516,0.9575816,0.1454143,8.436836,-24.05894,-29.93847,1001.201
7.039167881,-0.1174138,-2.647752,-0.3715262,0.006705016,0.9990276,0.1326448,8.436836,-24.05894,-29.93847,1001.201
7.059351921,-0.3625149,-2.587984,-0.310493,0.0008639765,1.00318,0.1449002,8.436836,-24.05894,-29.93847,1001.201
7.079535484,-0.3625149,-2.707521,-0.2494598,0.006249855,0.9964103,0.1515706,8.428748,-23.75117,-29.93857,1001.201
7.099719524,-0.05613857,-2.528215,-0.1884266,0.02742111,0.960963,0.1420794,8.428748,-23.75117,-29.93857,1001.203
7.119903564,-0.2399643,-3.604052,-0.1884266,0.004505125,0.9409364,0.1728582,8.457657,-24.79624,-30.31461,1001.203
7.140088081,-0.9752674,-3.544284,-0.310493,0.01220173,0.9423833,0.1850402,8.457657,-24.79624,-30.31461,1001.203
7.160272121,0.3115129,-3.484515,-0.5546259,-0.003411392,0.9591227,0.08613074,8.457657,-24.79624,-30.31461,1001.203
7.180456162,0.556614,-3.72359,-0.6156591,-0.002446367,0.9978601,0.1389608,7.705235,-24.42461,-30.38043,1001.202
7.200639725,0.06641194,-3.185671,-0.7987587,0.03159664,1.01325,0.2014985,7.705235,-24.42461,-30.38043,1001.202
7.220823765,0.3115129,-3.72359,-0.6156591,0.02398422,1.006158,0.1235154,7.687441,-23.74753,-30.38066,1001.202
7.241007805,0.005136684,-3.364977,-0.6156591,0.004013035,0.9816992,0.1658803,7.687441,-23.74753,-30.38066,1001.202
7.261191845,0.1889624,-3.484515,-0.6156591,-0.003840347,0.9934697,0.1398491,7.695529,-24.05529,-30.38055,1001.202
7.281375885,0.06641194,-3.305209,-0.859792,0.01175934,0.9794981,0.1551205,7.695529,-24.05529,-30.38055,1001.202
7.301559448,0.4340635,-3.066133,-0.5546259,0.0009860646,0.9929122,0.1544286,7.695529,-24.05529,-30.38055,1001.203
7.319221020,0.4340635,-3.125902,-0.6766923,-0.006783132,0.9970989,0.1603619,8.063717,-24.05943,-29.50082,1001.203
7.339405060,0.1276872,-3.364977,-0.859792,0.008671866,0.995405,0.1588459,8.063717,-24.05943,-29.50082,1001.207
7.359588623,0.3727882,-3.544284,-0.6766923,0.002514634,0.9861286,0.156725,7.687441,-23.74753,-30.38066,1001.207
7.379772663,0.06641194,-4.261509,-0.9208252,0.008524431,1.007456,0.1649237,7.687441,-23.74753,-30.38066,1001.206
7.399956703,0.06641194,-4.560352,-1.042892,-0.0105456,0.9894127,0.1480506,7.687441,-23.74753,-30.38066,1001.206
7.420140743,-0.3625149,-5.15804,-0.7377256,0.01538209,0.9196119,0.1407921,7.695529,-24.05529,-30.38055,1001.206
7.440324307,-0.3012396,-5.695959,-0.6766923,0.0232297,0.9489491,0.1257904,7.695529,-24.05529,-30.38055,1001.206
7.460509300,-0.6076158,-6.353415,-1.103925,0.01796172,0.9847501,0.1722458,8.065361,-24.05789,-29.93995,1001.206
7.480692864,0.3115129,-6.293646,-1.164958,0.008767783,1.067113,0.1592918,8.065361,-24.05789,-29.93995,1001.206
7.500876904,0.005136684,-6.472953,-1.225991,-0.01392302,0.989213,0.1631358,8.065361,-24.05789,-29.93995,1001.206
7.521060944,0.005136684,-7.07064,-1.103925,0.03052427,0.9830905,0.1629494,7.314321,-23.74802,-29.94301,1001.206
7.541244984,0.005136684,-7.190178,-1.103925,0.008257003,0.9903017,0.1353894,7.314321,-23.74802,-29.94301,1001.204
7.561428547,-0.3012396,-7.489021,-1.531157,0.01572119,0.9707019,0.168565,6.950934,-24.05473,-29.94438,1001.204
7.581612587,-0.4850653,-8.445321,-1.287024,0.04781329,0.9890928,0.169855,6.950934,-24.05473,-29.94438,1001.204
7.599274159,-0.4237901,-7.967171,-1.348058,0.02350288,0.9656092,0.1562881,6.950934,-24.05473,-29.94438,1001.204
7.619457722,-0.1786891,-8.684396,-1.287024,-0.008561607,0.9842985,0.1781149,6.942846,-23.74697,-29.94449,1001.204
7.639641762,-0.1786891,-8.98324,-1.409091,0.007934733,0.9763707,0.1716081,6.942846,-23.74697,-29.94449,1001.204
7.659825802,-0.2399643,-9.401621,-1.592191,0.01750226,0.9827476,0.1780459,7.323818,-24.05446,-30.3193,1001.202
7.680009842,-0.2399643,-9.700465,-1.409091,-0.00520692,0.9468517,0.1481736,7.323818,-24.05446,-30.3193,1001.202
7.700193882,-0.5463406,-10.47746,-1.470124,0.01542777,0.9552776,0.1599882,7.323818,-24.05446,-30.3193,1001.206
7.720377445,-0.7914416,-10.89584,-1.714257,0.02577711,0.9766258,0.1725602,6.577814,-24.05523,-29.50673,1001.206
7.740561485,-0.6688911,-11.91191,-1.77529,0.03408518,0.9674338,0.1835575,6.577814,-24.05523,-29.50673,1001.204
7.760745526,-0.4237901,-11.79237,-2.080456,-0.00033944,0.9815786,0.220382,6.942846,-23.74697,-29.94449,1001.204
7.780930042,-0.05613857,-12.15098,-1.95839,0.03604985,0.9645997,0.1791193,6.942846,-23.74697,-29.94449,1001.204
7.801114083,0.005136684,-12.44983,-1.836323,0.0302335,0.9272696,0.17255,6.942846,-23.74697,-29.94449,1001.204
7.821298123,0.06641194,-12.6889,-1.836323,-0.004947859,1.003929,0.2072067,6.576169,-24.05677,-29.0676,1001.204
7.841481686,-0.9752674,-13.58543,-1.653224,-0.01036083,0.9340158,0.1644711,6.576169,-24.05677,-29.0676,1001.204
7.859142304,-1.833121,-14.4222,-1.592191,-0.002854055,0.9498258,0.2426268,6.58752,-24.42454,-29.5066,1001.204
7.879327297,-0.9139921,-13.82451,-2.690789,-0.007102364,0.9834189,0.1712831,6.58752,-24.42454,-29.5066,1001.204
7.899510861,0.005136684,-14.66127,-2.873888,0.007183808,0.9184894,0.1928467,6.58752,-24.42454,-29.5066,1001.204
7.919694901,-0.4237901,-14.66127,-2.507689,0.03561365,1.000287,0.195397,6.58752,-24.42454,-29.5066,1001.204
7.939878941,-0.7301663,-14.72104,-2.14149,0.03165045,1.008972,0.1931418,6.58752,-24.42454,-29.5066,1001.204
7.960062981,-0.2399643,-14.36243,-2.629755,0.01085292,1.052909,0.2266432,6.206337,-24.05418,-29.50821,1001.204
7.980246544,0.005136684,-13.40613,-1.836323,-0.04556798,0.973745,0.1609298,6.206337,-24.05418,-29.50821,1001.204
8.000430584,-0.4237901,-13.04751,-1.714257,-0.01174414,0.9691837,0.1340276,6.206337,-24.05418,-29.50821,1001.204
8.020614624,-2.139497,-14.00382,-1.042892,-0.02751784,0.955302,0.2398519,6.206337,-24.05418,-29.50821,1001.202
8.040798664,-0.3625149,-12.5096,-1.77529,0.05777279,0.960973,0.2841183,6.206337,-24.05418,-29.50821,1001.202
8.060982704,-0.4850653,-11.5533,-1.225991,-0.02491116,0.9801224,0.1838953,5.826774,-23.74537,-29.5098,1001.201
8.081166267,0.06641194,-10.35792,-1.409091,0.0212981,0.9486984,0.1481713,5.826774,-23.74537,-29.5098,1001.201
8.101350784,-0.4237901,-10.95561,-1.592191,0.03112776,0.9331154,0.170718,5.15077,-24.05407,-28.69687,1001.202
8.121534824,0.1276872,-9.999309,-1.592191,-0.02318353,0.9577994,0.1411179,5.15077,-24.05407,-28.69687,1001.202
8.139195442,-0.3012396,-10.29815,-1.714257,0.001768155,0.9682609,0.1495603,5.15077,-24.05407,-28.69687,1001.202
8.159379482,-1.159093,-11.49353,-1.592191,0.02056869,0.968009,0.2030522,5.153823,-24.0512,-29.5124,1001.202
8.179563522,-0.7301663,-12.09122,-2.019423,0.0309051,0.9525217,0.1190376,5.153823,-24.0512,-29.5124,1001.202
8.199748039,-0.7301663,-13.28659,-2.019423,0.03314962,0.8083162,0.05487036,5.831574,-24.05622,-28.63143,1001.202
8.219932079,0.06641194,-13.76474,-1.714257,0.002174935,0.8992217,-0.07028415,5.831574,-24.05622,-28.63143,1001.202
8.240116119,-0.4850653,-15.31873,-1.77529,0.04259142,0.941658,0.2059045,5.831574,-24.05622,-28.63143,1001.202
8.260299683,0.1276872,-15.25896,-2.019423,-0.03158814,1.014171,0.1607362,5.523654,-24.05379,-29.07179,1001.202
8.280483723,-0.1786891,-15.85665,-2.080456,0.02702021,0.9927821,0.2064526,5.523654,-24.05379,-29.07179,1001.202
8.300667763,-0.5463406,-15.49804,-2.446656,-0.005146008,0.9421917,0.129591,5.160476,-24.42338,-28.69674,1001.202
8.320851803,-0.7914416,-16.03596,-1.95839,0.001331188,0.9642389,0.1635923,5.160476,-24.42338,-28.69674,1001.202
8.341035366,0.3727882,-15.3785,-2.324589,0.02043662,1.019037,0.1875184,5.160476,-24.42338,-28.69674,1001.202
8.361219406,-0.6688911,-15.5578,-1.592191,-0.1037591,0.9598209,0.1587933,4.418933,-24.41996,-29.0761,1001.206
8.381403446,-1.649295,-16.75318,-2.263556,-0.03171708,1.02678,0.06172223,4.418933,-24.41996,-29.0761,1001.206
8.401587963,-0.4850653,-17.17156,-2.324589,0.08423395,1.008536,0.1692132,4.417289,-24.4215,-28.63697,1001.206
8.419248581,-1.097818,-15.97619,-2.507689,0.02771699,1.016237,0.1387936,4.417289,-24.4215,-28.63697,1001.206
8.439432621,0.005136684,-14.66127,-2.263556,-0.0003598028,1.065004,0.1140109,4.417289,-24.4215,-28.63697,1001.206
8.459616661,0.005136684,-14.72104,-2.385623,0.07380266,1.074249,0.1233302,4.785712,-24.42542,-27.81996,1001.206
8.479800224,-0.3625149,-14.54173,-1.653224,0.02362889,0.8773434,0.06695539,4.785712,-24.42542,-27.81996,1001.208
8.499985218,-0.2399643,-13.28659,-2.446656,0.03651049,1.045992,0.1807295,4.42723,-24.7906,-28.69957,1001.208
8.520168781,0.3727882,-12.74867,-2.446656,-0.0007902323,1.061523,0.07355594,4.42723,-24.7906,-28.69957,1001.208
8.540352821,0.3115129,-12.27052,-2.080456,-0.01500925,0.9608159,0.09348008,3.682634,-24.79004,-28.2634,1001.208
8.560536862,-0.6076158,-12.56937,-2.019423,-0.009226411,0.9605784,0.1260682,3.682634,-24.79004,-28.2634,1001.21
8.580720902,-0.3625149,-14.24289,-2.202523,0.0008036186,1.008855,0.1099784,3.682634,-24.79004,-28.2634,1001.21
8.600904942,0.2502377,-15.25896,-2.690789,0.05281737,1.013782,0.1795815,3.68099,-24.79158,-27.82427,1001.212
8.621088505,-0.9139921,-15.07965,-1.836323,-0.0237782,0.9282429,0.09138853,3.68099,-24.79158,-27.82427,1001.212
8.641272545,-1.036543,-16.27503,-2.14149,-0.0104053,1.057033,0.1698254,3.319221,-25.15985,-27.82562,1001.212
8.661456585,-0.2399643,-18.06809,-2.629755,0.001208182,1.057601,-0.01654315,3.319221,-25.15985,-27.82562,1001.212
8.679117680,-0.4850653,-18.78532,-2.507689,-0.03936497,0.9809891,0.07493821,3.319221,-25.15985,-27.82562,1001.212
8.699301720,-1.097818,-19.38301,-2.385623,0.01246863,0.9594941,0.218953,3.307871,-24.79208,-27.38662,1001.212
8.719485760,-0.1786891,-19.38301,-2.568722,0.06101575,0.9752672,0.1179838,3.307871,-24.79208,-27.38662,1001.208
8.739669800,-0.1786891,-19.44277,-2.507689,0.01478972,1.047858,0.1554958,3.319221,-25.15985,-27.82562,1001.208
8.759853363,-0.3625149,-18.90486,-2.690789,-0.01425667,0.9782186,0.09868927,3.319221,-25.15985,-27.82562,1001.208
8.780037403,-1.526745,-19.02439,-2.873888,-0.02057282,0.981014,0.1493589,3.319221,-25.15985,-27.82562,1001.208
8.800221443,0.7404398,-18.18763,-2.934922,0.003577683,1.138333,0.1032917,2.564919,-24.78998,-27.38957,1001.208
8.820405960,-0.9139921,-16.87272,-2.324589,-0.02929793,0.9452774,0.1243351,2.564919,-24.78998,-27.38957,1001.208
8.840590000,-0.5463406,-16.03596,-2.446656,-0.002171285,1.013708,0.2025303,2.253946,-24.79042,-27.01441,1001.206
8.860774040,-0.6688911,-15.31873,-2.446656,0.0514733,0.9264694,0.1384419,2.253946,-24.79042,-27.01441,1001.206
8.880957604,-0.3625149,-14.4222,-2.263556,0.04572188,0.9631337,0.1459882,2.253946,-24.79042,-27.01441,1001.21
8.901141644,-0.5463406,-13.82451,-2.080456,0.01163263,1.069645,0.1525255,1.882236,-24.7896,-26.95316,1001.21
8.921325684,-0.6688911,-13.82451,-1.897357,0.001429078,0.9964643,0.1389275,1.882236,-24.7896,-26.95316,1001.21
8.941509724,-0.1786891,-14.66127,-1.897357,0.02288907,0.9364084,0.1683623,1.892177,-25.15869,-27.01576,1001.21
8.959170818,-0.2399643,-14.00382,-1.95839,-0.002028737,0.9625764,0.1796217,1.892177,-25.15869,-27.01576,1001.21
8.979354858,0.1889624,-13.88428,-2.080456,0.04796012,1.017607,0.1285727,1.892177,-25.15869,-27.01576,1001.21
8.999538898,0.8629903,-14.4222,-1.592191,-0.08123038,0.8919123,0.1510906,1.519056,-25.15918,-26.57811,1001.21
9.019722939,-1.220368,-13.58543,-2.202523,0.02806742,0.8680956,0.126616,1.519056,-25.15918,-26.57811,1001.21
9.039906502,0.4340635,-14.12335,-1.897357,0.02215923,1.035946,0.1951493,1.5207,-25.15764,-27.01724,1001.21
9.060090542,0.3115129,-12.80844,-2.446656,0.01595023,1.031115,0.1843579,1.5207,-25.15764,-27.01724,1001.21
9.080274582,-0.1174138,-12.44983,-2.019423,-0.005324082,1.036819,0.1149201,1.145937,-25.15968,-26.14046,1001.208
9.100458622,-0.9139921,-12.21075,-1.225991,0.002090057,1.020838,0.1739565,1.145937,-25.15968,-26.14046,1001.208
9.120642185,-0.4237901,-11.43376,-1.714257,-0.02068016,0.9895923,0.1636398,1.145937,-25.15968,-26.14046,1001.21
9.140827179,-1.097818,-11.25445,-1.348058,0.001814595,1.003989,0.162432,2.252302,-24.79197,-26.57528,1001.21
9.161010742,-0.5463406,-9.93954,-1.287024,-0.01065071,1.037821,0.152415,2.252302,-24.79197,-26.57528,1001.21
9.181194782,-0.05613857,-9.879771,-1.409091,0.03559067,1.042882,0.1509875,1.900238,-25.52955,-26.5765,1001.21
9.201378822,-0.4850653,-8.98324,-1.348058,-0.004317409,0.9929203,0.145678,1.900238,-25.52955,-26.5765,1001.21
9.221562862,0.1276872,-8.624627,-1.164958,0.01713481,1.054069,0.1191213,1.900238,-25.52955,-26.5765,1001.21
9.239223957,0.3727882,-8.385552,-1.348058,0.002125095,1.019856,0.07759288,1.124882,-24.42259,-25.70158,1001.21
9.259407997,-0.4237901,-8.146478,-0.9818584,-0.01290553,0.9858546,0.1124628,1.124882,-24.42259,-25.70158,1001.21
9.279592037,-0.4237901,-8.684396,-1.409091,0.02669454,1.021124,0.1330528,1.144293,-25.16122,-25.70133,1001.21
9.299775601,0.1276872,-8.385552,-1.164958,0.009936078,1.010398,0.1635201,1.144293,-25.16122,-25.70133,1001.208
9.319959641,-0.1786891,-7.309715,-1.225991,-0.01171214,0.9660121,0.160727,1.144293,-25.16122,-25.70133,1001.208
9.340143681,-0.1174138,-6.771796,-1.103925,0.002792194,1.003151,0.1507359,0.7858105,-25.5264,-26.58094,1001.208
9.360327721,0.1276872,-5.695959,-0.9208252,0.01671025,0.9301957,0.1015861,0.7858105,-25.5264,-26.58094,1001.208
9.380511761,-0.4237901,-5.098271,-0.7987587,0.02135815,0.9836126,0.1454561,1.144293,-25.16122,-25.70133,1001.208
9.400695324,-0.2399643,-4.978734,-0.6156591,-0.001471989,0.9571093,0.1454516,1.144293,-25.16122,-25.70133,1001.208
9.420879364,0.06641194,-4.560352,-0.310493,-0.008842267,0.9689595,0.1121225,1.144293,-25.16122,-25.70133,1001.21
9.441063404,-0.3625149,-4.381046,-0.310493,0.01357924,0.9492903,0.1258113,0.7744608,-25.15863,-26.14194,1001.21
9.461247921,-0.2399643,-3.962665,-0.4935927,0.0169737,1.027282,0.1327024,0.7744608,-25.15863,-26.14194,1001.21
9.481431961,-0.1786891,-3.72359,-0.6156591,0.009903257,1.013502,0.1436315,0.7631111,-24.79086,-25.70293,1001.21
9.501616001,-0.05613857,-3.843127,-0.6156591,0.008780841,0.9869619,0.1309432,0.7631111,-24.79086,-25.70293,1001.21
9.519276619,-0.1174138,-3.604052,-0.6156591,0.005668898,1.004724,0.1429774,0.7631111,-24.79086,-25.70293,1001.21
9.539460182,-0.05613857,-3.962665,-0.5546259,0.003763632,1.002773,0.1414818,1.144293,-25.16122,-25.70133,1001.21
9.559645176,0.2502377,-4.141971,-0.5546259,0.01687321,0.9958115,0.1301333,1.144293,-25.16122,-25.70133,1001.21
9.579828739,-0.1174138,-4.141971,-0.5546259,0.01520777,0.9739339,0.1350552,0.7600574,-24.79373,-24.88741,1001.208
9.600012779,-0.6076158,-4.082202,-0.7377256,0.01174719,0.980433,0.1585451,0.7600574,-24.79373,-24.88741,1001.208
9.620196819,-0.05613857,-4.321278,-0.7377256,0.01787143,0.9927989,0.1422369,0.3885813,-24.79268,-24.88889,1001.208
9.640380860,-0.1174138,-4.141971,-0.7377256,0.01493475,0.9959631,0.1607941,0.3885813,-24.79268,-24.88889,1001.208
9.660564423,-0.1174138,-4.022434,-0.6156591,0.01474134,0.9723241,0.1501082,0.3885813,-24.79268,-24.88889,1001.208
9.680748463,-0.05613857,-3.902896,-0.5546259,0.01283073,0.9709003,0.1442438,0.4013405,-25.15912,-25.70428,1001.208
9.700932503,0.06641194,-4.022434,-0.4935927,-0.001454896,0.9952595,0.1583713,0.4013405,-25.15912,-25.70428,1001.206
9.721116543,0.06641194,-4.560352,-0.7987587,-0.004352976,0.9957975,0.1486545,0.01851559,-24.7903,-25.26676,1001.206
9.741300583,-0.1174138,-5.038503,-0.7987587,-0.00169625,0.9754133,0.1560325,0.01851559,-24.7903,-25.26676,1001.206
9.761485100,-0.3012396,-5.456884,-0.859792,0.02392309,0.9701848,0.1841135,0.01851559,-24.7903,-25.26676,1001.206
9.779145718,0.005136684,-5.994802,-0.7377256,0.02345237,0.9691896,0.1860408,0.4096365,-25.52976,-25.32776,1001.206
9.799329281,-0.6076158,-7.429253,-0.859792,0.05199862,0.9222831,0.170473,0.4096365,-25.52976,-25.32776,1001.206
9.819513321,-0.4850653,-8.744164,-1.409091,0.04906567,0.8861094,0.1493247,0.4096365,-25.52976,-25.32776,1001.206
9.839697361,-0.1786891,-8.50509,-1.348058,0.01011779,0.9953637,0.1651686,0.4096365,-25.52976,-25.32776,1001.206
9.859881878,0.1276872,-8.206246,-1.225991,0.02485527,1.012993,0.1684154,0.4096365,-25.52976,-25.32776,1001.208
9.880065918,0.06641194,-8.385552,-1.225991,0.01329731,0.9715527,0.1768574,0.0268116,-25.16094,-24.89023,1001.208
9.900249958,-0.1786891,-8.863703,-1.287024,-0.001998399,0.9602368,0.1713034,0.0268116,-25.16094,-24.89023,1001.206
9.920433998,-0.4237901,-9.521159,-1.287024,-0.005678829,0.9844347,0.2175269,0.03651714,-25.53025,-24.89011,1001.206
9.940617561,-0.3625149,-10.29815,-1.409091,-0.003589503,1.011192,0.2097814,0.03651714,-25.53025,-24.89011,1001.202
9.960801601,-0.2399643,-11.19468,-1.77529,0.02697206,0.9975274,0.1676196,0.03651714,-25.53025,-24.89011,1001.202
9.980985641,-0.9139921,-12.33029,-2.324589,0.02685516,0.9666393,0.2039891,0.4160538,-25.90216,-24.44937,1001.206
10.001169682,-0.4237901,-13.76474,-1.77529,0.03640386,1.094275,0.1977426,0.4160538,-25.90216,-24.44937,1001.206
10.021353245,-0.1786891,-14.30266,-2.507689,0.002345853,1.001263,0.09620145,-0.3479528,-25.16298,-24.01345,1001.206
10.041537285,-0.3012396,-14.54173,-2.14149,0.07389671,0.9456342,0.1937726,-0.3479528,-25.16298,-24.01345,1001.206
10.059198856,-0.6688911,-12.74867,-1.836323,0.06242171,0.978708,0.1151303,-0.3479528,-25.16298,-24.01345,1001.206
10.079382420,-0.6076158,-12.39006,-1.714257,0.01171773,0.9828451,0.159566,-0.3268976,-25.90006,-24.45233,1001.206
10.099566460,-0.1786891,-12.03145,-1.77529,-0.08327473,1.02067,0.1609407,-0.3268976,-25.90006,-24.45233,1001.206
10.119750500,-0.7914416,-13.6452,-2.14149,0.03488268,0.9005322,0.2372166,-0.3366032,-25.53075,-24.45245,1001.206
10.139934540,-0.4237901,-14.36243,-2.019423,-0.06152448,0.9777169,0.1274573,-0.3366032,-25.53075,-24.45245,1001.202
10.160118103,-1.036543,-14.66127,-2.263556,-0.01138741,0.9782068,0.2018412,-0.3366032,-25.53075,-24.45245,1001.202
10.180303097,-0.4850653,-14.6015,-2.263556,-0.02474489,0.96672,0.1675724,-0.7080784,-25.5297,-24.45393,1001.202
10.200486660,-0.5463406,-14.72104,-2.202523,-0.0005226361,0.9171985,0.2137557,-0.7080784,-25.5297,-24.45393,1001.202
10.220670700,-1.281644,-15.25896,-2.507689,0.06412227,0.9174093,0.1426233,-0.7127752,-25.53411,-23.19927,1001.202
10.240854740,-0.4850653,-14.90035,-2.385623,0.08781656,0.9917642,0.1557382,-0.7127752,-25.53411,-23.19927,1001.202
10.261038780,-0.9752674,-14.4222,-2.019423,0.04341656,0.9543941,0.1443588,-1.001518,-26.27054,-23.57665,1001.202
10.281222820,-0.4850653,-14.6015,-2.385623,0.04401501,0.9446177,0.1538962,-1.001518,-26.27054,-23.57665,1001.201
10.301406384,-0.4850653,-14.96012,-2.019423,-0.02323254,0.9218585,0.1496518,-1.001518,-26.27054,-23.57665,1001.201
10.321590424,-0.4237901,-15.61757,-2.080456,0.004590547,0.9731006,0.2031765,-1.022339,-25.53324,-23.20051,1001.202
10.339251518,-0.8527169,-16.03596,-2.202523,-0.004903555,0.922483,0.1141164,-1.022339,-25.53324,-23.20051,1001.202
10.359435558,-0.4850653,-15.5578,-2.507689,-0.01592129,0.9960554,0.1053704,-1.011225,-25.90123,-23.57678,1001.196
10.379619598,-0.4237901,-16.21526,-1.95839,0.04452497,0.9033932,0.1097733,-1.011225,-25.90123,-23.57678,1001.196
10.399803639,-1.342919,-14.84058,-2.385623,0.01605325,1.02218,0.2060773,-1.011225,-25.90123,-23.57678,1001.2
10.419987679,-0.6688911,-15.07965,-2.080456,0.05691388,0.9570806,0.04026262,-1.384109,-25.9015,-23.20186,1001.2
10.440171242,-0.6076158,-14.48197,-2.080456,0.0422748,0.8904874,0.08859798,-1.384109,-25.9015,-23.20186,1001.202
10.460355282,-0.1174138,-13.70497,-2.080456,0.05426747,0.9734693,0.1914327,-1.385753,-25.90305,-22.76273,1001.202
10.480539799,-0.4850653,-12.86821,-2.019423,-0.01415523,0.9691527,0.1335439,-1.385753,-25.90305,-22.76273,1001.202
10.500723839,0.2502377,-12.27052,-2.019423,-0.02965588,1.054121,0.141574,-1.385753,-25.90305,-22.76273,1001.202
10.520907879,-0.6076158,-11.97168,-2.080456,-0.02511178,0.9587958,0.08664271,-1.37769,-26.2739,-22.32347,1001.204
10.541091919,-1.649295,-12.21075,-1.714257,0.01224939,0.860245,0.1128594,-1.37769,-26.2739,-22.32347,1001.204
10.561275482,-0.5463406,-13.04751,-1.836323,0.06524897,0.9433348,0.1684372,-2.122286,-26.27335,-21.88729,1001.2
10.581459522,-0.2399643,-12.56937,-1.836323,-0.009628016,1.0726,0.1647799,-2.122286,-26.27335,-21.88729,1001.2
10.599121094,-0.9139921,-12.92798,-2.080456,0.04098748,0.9548153,0.1959489,-2.122286,-26.27335,-21.88729,1001.202
10.619304657,-0.2399643,-12.74867,-1.95839,0.001095703,0.9439083,0.1612439,-2.133402,-25.90536,-21.51103,1001.202
10.639488697,-0.6688911,-12.6889,-2.14149,-0.04136844,1.022199,0.3136976,-2.133402,-25.90536,-21.51103,1001.202
10.659672737,-1.220368,-14.12335,-1.897357,0.02081179,0.989939,0.09303071,-1.397102,-25.53527,-22.32373,1001.202
10.679856777,-0.5463406,-14.72104,-2.324589,0.1278197,1.033105,0.1998039,-1.397102,-25.53527,-22.32373,1001.202
10.700040341,-1.281644,-14.54173,-2.14149,0.0240391,0.8433856,0.07163517,-1.397102,-25.53527,-22.32373,1001.202
10.720224381,-0.05613857,-14.24289,-1.714257,0.03927793,1.095631,0.2118762,-2.474351,-27.01093,-21.88852,1001.202
10.740408421,-0.6688911,-14.18312,-2.202523,0.005519362,1.016601,0.1665688,-2.474351,-27.01093,-21.88852,1001.202
10.760592461,-0.7301663,-14.78081,-2.080456,-0.008492577,0.9783704,0.1896755,-3.236713,-26.2702,-21.89173,1001.198
10.780776501,-0.4237901,-14.36243,-2.263556,-0.006338465,0.9601724,0.1713085,-3.236713,-26.2702,-21.89173,1001.198
10.800961018,-0.1174138,-14.48197,-1.95839,0.02343128,0.971325,0.1661331,-2.485466,-26.64294,-21.51225,1001.2
10.821145058,-0.9752674,-14.00382,-2.080456,0.05548374,0.7940263,0.1611173,-2.485466,-26.64294,-21.51225,1001.2
10.841328621,0.1889624,-13.28659,-1.897357,-0.01633701,1.068234,0.2041168,-2.485466,-26.64294,-21.51225,1001.203
10.861512661,-0.4237901,-12.80844,-1.897357,-0.02164218,0.9501341,0.1346383,-2.877998,-25.9048,-21.07485,1001.203
10.879173279,-0.2399643,-13.04751,-1.897357,0.00544158,0.9434836,0.1617158,-2.877998,-25.9048,-21.07485,1001.203
10.899357796,0.005136684,-12.56937,-2.019423,0.03634233,0.9799468,0.19548,-2.869936,-26.27566,-20.6356,1001.203
10.919541836,-0.1174138,-11.43376,-1.714257,0.002091692,1.020973,0.1603348,-2.869936,-26.27566,-20.6356,1001.203
10.939725876,-0.05613857,-10.7763,-1.592191,0.005884576,0.9857104,0.2039107,-2.869936,-26.27566,-20.6356,1001.203
10.959909916,-0.2399643,-10.05908,-1.531157,0.006314534,0.9910921,0.150492,-3.231706,-26.64392,-20.63694,1001.203
10.980093479,0.005136684,-9.401621,-1.470124,-0.008296787,0.9625607,0.1718452,-3.231706,-26.64392,-20.63694,1001.203
11.000277519,0.6791645,-9.222315,-1.836323,-0.0149152,0.9521089,0.1409931,-2.868292,-26.27411,-21.07473,1001.203
11.020461559,0.7404398,-8.50509,-1.653224,-0.0001060698,0.9640276,0.1339085,-2.868292,-26.27411,-21.07473,1001.203
11.040645599,0.556614,-8.684396,-1.592191,0.007951711,1.014511,0.1855008,-2.868292,-26.27411,-21.07473,1001.203
11.060829639,-0.05613857,-8.744164,-1.714257,-0.000327157,0.9419785,0.1582883,-2.86023,-26.64497,-20.63547,1001.203
11.081013203,0.005136684,-8.564858,-1.348058,-0.006248115,1.072035,0.1779016,-2.86023,-26.64497,-20.63547,1001.203
11.101197720,-0.1786891,-8.206246,-1.470124,-0.001691384,0.9352002,0.1557233,-2.500104,-26.27826,-20.19499,1001.203
11.121381760,0.1276872,-7.907403,-1.653224,0.02239135,1.017321,0.1680181,-2.500104,-26.27826,-20.19499,1001.206
11.141565800,0.7404398,-7.489021,-1.287024,0.002733316,0.9683331,0.1437213,-2.500104,-26.27826,-20.19499,1001.206
11.159226418,1.353192,-7.130409,-1.897357,0.004710425,1.004235,0.141996,-2.861875,-26.64652,-20.19634,1001.202
11.179410458,1.046816,-7.847633,-1.531157,-0.003229179,0.9431601,0.1325269,-2.861875,-26.64652,-20.19634,1001.202
11.199594498,0.3115129,-8.50509,-1.409091,0.02340093,1.014278,0.1343819,-3.60647,-26.64597,-19.76016,1001.202
11.219779015,-1.58802,-9.222315,-1.164958,-0.02682622,0.9406242,0.1086686,-3.60647,-26.64597,-19.76016,1001.204
11.239963055,-1.404194,-9.760234,-1.164958,0.01064632,1.032057,0.1303732,-3.60647,-26.64597,-19.76016,1001.204
11.260146618,-0.3625149,-9.521159,-1.348058,-0.000224585,1.014237,0.1032742,-3.225054,-27.01611,-19.82129,1001.202
11.280330658,0.6791645,-9.521159,-2.019423,-0.001191846,1.013991,0.1266269,-3.225054,-27.01611,-19.82129,1001.202
11.300514698,1.046816,-9.580928,-1.348058,0.01531559,1.003102,0.223218,-3.244465,-26.27748,-19.82155,1001.202
11.320698738,-0.4237901,-9.760234,-2.019423,0.02341914,0.9722599,0.1695577,-3.244465,-26.27748,-19.82155,1001.202
11.340882301,-0.1786891,-11.01538,-1.531157,0.0138195,1.006752,0.243729,-3.969649,-27.01555,-19.38512,1001.2
11.361066341,0.2502377,-11.01538,-1.836323,-0.00270302,0.9786881,0.1663171,-3.969649,-27.01555,-19.38512,1001.2
11.381250382,-0.05613857,-11.49353,-2.019423,-0.009461641,1.019561,0.138914,-3.969649,-27.01555,-19.38512,1001.204
11.401434422,-0.05613857,-11.91191,-2.14149,-0.0239985,0.9855499,0.1265841,-3.60788,-26.64729,-19.38377,1001.204
11.421618939,-0.2399643,-12.56937,-1.95839,-0.0107244,0.9650416,0.1135075,-3.60788,-26.64729,-19.38377,1001.204
11.439279556,-0.8527169,-12.74867,-1.348058,-0.01087812,0.977543,0.1230003,-3.619229,-26.27952,-18.94477,1001.204
11.459463596,-0.2399643,-12.44983,-1.531157,0.005475618,1.020741,0.1398886,-3.619229,-26.27952,-18.94477,1001.204
11.479647160,-0.1174138,-11.31422,-1.714257,0.01283003,0.9708424,0.1500817,-3.619229,-26.27952,-18.94477,1001.204
11.499831200,0.3727882,-11.31422,-1.897357,0.02256725,0.9631297,0.1606197,-3.611168,-26.65038,-18.50551,1001.202
11.520015717,0.2502377,-11.5533,-1.653224,-0.006467299,0.9708523,0.1690871,-3.611168,-26.65038,-18.50551,1001.202
11.540199757,0.3115129,-11.61306,-1.470124,0.01670682,0.9695576,0.1388591,-3.984287,-26.65087,-18.06786,1001.204
11.560383797,-0.3012396,-11.67283,-1.531157,0.007342621,0.9857013,0.1581692,-3.984287,-26.65087,-18.06786,1001.204
11.580567837,-0.5463406,-11.67283,-1.531157,0.002068378,0.983278,0.1503436,-3.984287,-26.65087,-18.06786,1001.204
11.600751877,-1.097818,-11.91191,-1.714257,0.007798015,0.9883378,0.1372975,-3.612812,-26.65192,-18.06638,1001.204
11.620935440,-1.404194,-11.61306,-1.714257,0.01221937,0.9815489,0.1444555,-3.612812,-26.65192,-18.06638,1001.206
11.641119480,-1.097818,-11.07515,-1.103925,0.05411575,0.9474601,0.1266888,-3.966494,-27.32795,-18.06762,1001.206
11.661303520,-1.342919,-9.93954,-1.103925,0.0003803857,0.9218295,0.2367156,-3.966494,-27.32795,-18.06762,1001.206
11.681487560,0.1276872,-9.282084,-1.164958,0.01673772,1.005941,0.1833719,-3.966494,-27.32795,-18.06762,1001.206
11.699148655,0.06641194,-8.564858,-1.164958,0.009430362,0.9726814,0.154989,-3.595018,-27.329,-18.06614,1001.204
11.719332695,-0.5463406,-7.847633,-1.042892,0.02183331,0.9830356,0.2043209,-3.595018,-27.329,-18.06614,1001.204
11.739516735,-0.9139921,-7.489021,-0.4935927,-0.0033628,0.9534441,0.1701978,-4.28717,-26.95908,-17.69258,1001.21
11.759700298,-1.159093,-7.130409,-0.6156591,-0.005643469,0.9825103,0.1673703,-4.28717,-26.95908,-17.69258,1001.21
11.779884339,-1.404194,-6.831565,-0.6156591,-0.01036271,1.014122,0.1485394,-4.28717,-26.95908,-17.69258,1001.21
11.800068379,-0.9139921,-6.532722,-0.7377256,0.02090093,0.9431189,0.07507341,-4.295259,-26.65132,-17.69269,1001.21
11.820252896,-0.4237901,-6.11434,-0.3715262,-0.007440545,0.9710809,0.1934224,-4.295259,-26.65132,-17.69269,1001.21
11.840436936,-0.7301663,-5.755728,-0.4935927,0.01628576,0.9639426,0.1669706,-4.285553,-27.02063,-17.69256,1001.21
11.860620976,-0.2399643,-5.397115,-0.6156591,0.03948706,0.9600477,0.1546948,-4.285553,-27.02063,-17.69256,1001.208
11.880804539,-0.3012396,-4.620121,-0.4325595,0.01493951,0.995387,0.1700279,-4.285553,-27.02063,-17.69256,1001.208
11.900988579,-0.3012396,-4.261509,-0.4325595,0.01128194,1.018566,0.1724383,-3.976199,-26.95863,-18.06775,1001.208
11.921172619,-0.6688911,-4.620121,-0.6766923,-0.001428772,0.9529256,0.1765103,-3.976199,-26.95863,-18.06775,1001.208
11.941356659,0.2502377,-4.918965,-0.310493,-0.01227164,1.051513,0.1862628,-3.966494,-27.32795,-18.06762,1001.206
11.961540699,-0.3012396,-5.935034,-0.5546259,0.01917164,0.8860133,0.1143324,-3.966494,-27.32795,-18.06762,1001.206
11.979201794,0.4953387,-6.293646,-0.9818584,0.02698173,0.9190354,0.06972197,-3.966494,-27.32795,-18.06762,1001.206
11.999385834,-0.1786891,-5.576421,-1.042892,0.02740343,1.042672,0.1110952,-4.296903,-26.65287,-17.25356,1001.206
12.019569397,-0.4850653,-5.516653,-0.7377256,0.007471891,0.9760273,0.1078591,-4.296903,-26.65287,-17.25356,1001.206
12.039753437,0.1276872,-5.935034,-0.6766923,0.01297122,0.9998608,0.106863,-4.287197,-27.02218,-17.25343,1001.206
12.059937477,-0.4237901,-6.413184,-1.042892,-0.02245257,0.9376473,0.1222277,-4.287197,-27.02218,-17.25343,1001.206
12.080121517,-0.4850653,-7.489021,-0.859792,-0.002531205,0.9657441,0.1037776,-4.652232,-27.33044,-16.81567,1001.206
12.100305557,-0.3625149,-8.385552,-1.287024,-0.03371795,0.9521774,0.1059878,-4.652232,-27.33044,-16.81567,1001.206
12.120489121,-0.3625149,-9.521159,-1.287024,0.04642734,1.024044,0.1613036,-4.652232,-27.33044,-16.81567,1001.206
12.140674114,-0.1786891,-9.999309,-1.287024,0.01912796,1.008127,0.1620019,-5.023707,-27.32938,-16.81715,1001.208
12.160857677,0.005136684,-10.47746,-1.409091,0.005872359,0.9469938,0.1992518,-5.023707,-27.32938,-16.81715,1001.208
12.181041718,-0.7301663,-9.93954,-1.348058,0.02473915,0.9831398,0.1493344,-4.251636,-28.43943,-16.81381,1001.208
12.201225758,-0.5463406,-9.700465,-1.225991,0.0149158,0.9973051,0.1720122,-4.251636,-28.43943,-16.81381,1001.208
12.221409798,-0.6688911,-9.222315,-1.287024,-0.00895464,0.9374759,0.1596716,-4.251636,-28.43943,-16.81381,1001.206
12.241593361,-0.1174138,-9.46139,-1.287024,-0.001820265,0.9855219,0.1625584,-4.642526,-27.69975,-16.81554,1001.206
12.259254932,-0.1174138,-9.043009,-1.287024,-0.003162854,0.9776237,0.1263967,-4.642526,-27.69975,-16.81554,1001.206
12.279438973,-0.4237901,-8.923471,-1.287024,0.0279334,1.0379,0.153333,-4.661727,-27.024,-16.43938,1001.206
12.299622536,-0.3012396,-8.564858,-1.103925,-0.002481477,0.9611291,0.1294753,-4.661727,-27.024,-16.43938,1001.206
12.319806576,0.005136684,-8.50509,-0.9208252,0.007365039,0.9440303,0.1583177,-4.661727,-27.024,-16.43938,1001.205
12.339990616,0.1889624,-9.043009,-1.042892,-0.007555404,0.9423007,0.1149991,-4.652232,-27.33044,-16.81567,1001.205
12.360174656,-0.1786891,-8.325784,-1.164958,0.01534923,1.002005,0.1385301,-4.652232,-27.33044,-16.81567,1001.205
12.380358219,-0.3625149,-7.967171,-1.225991,0.01226246,1.017969,0.1364177,-5.017053,-27.70157,-16.0015,1001.205
12.400542259,-0.05613857,-7.907403,-0.9208252,0.003053588,0.9424534,0.1154731,-5.017053,-27.70157,-16.0015,1001.205
12.420726299,-0.4850653,-7.249947,-0.859792,-0.0012648,0.9799485,0.1390911,-5.017053,-27.70157,-16.0015,1001.205
12.440910816,-0.3012396,-7.309715,-0.9208252,0.005780697,0.9558988,0.1317926,-5.017053,-27.70157,-16.0015,1001.206
12.461094856,-0.2399643,-7.429253,-0.7987587,0.003275406,0.9635933,0.1338949,-5.017053,-27.70157,-16.0015,1001.206
12.481278896,0.1276872,-7.130409,-0.9818584,0.008843838,1.02115,0.152543,-5.007346,-28.07088,-16.00137,1001.205
12.501462937,0.005136684,-7.07064,-0.9208252,0.009768429,0.9850098,0.1338226,-5.007346,-28.07088,-16.00137,1001.205
12.519123554,-0.4237901,-7.010871,-0.7987587,0.01702684,0.9823334,0.170253,-5.007346,-28.07088,-16.00137,1001.21
12.539308071,-0.4237901,-7.369484,-0.9818584,0.01993394,0.9815717,0.1536898,-5.005939,-28.06956,-16.37776,1001.21
12.559491634,-0.3012396,-7.309715,-1.042892,0.02065717,1.001396,0.1589469,-5.005939,-28.06956,-16.37776,1001.21
12.579675675,0.06641194,-7.429253,-0.9818584,0.00973739,0.9872915,0.1479789,-5.391816,-27.70361,-15.12471,1001.21
12.599859715,-0.3625149,-7.249947,-1.225991,0.009264912,0.9861516,0.164501,-5.391816,-27.70361,-15.12471,1001.209
12.620043755,-0.4237901,-7.190178,-1.103925,0.006482013,1.016466,0.1816489,-5.401523,-27.33429,-15.12484,1001.209
12.640227795,0.06641194,-7.309715,-1.103925,0.016653,0.9738347,0.1472158,-5.401523,-27.33429,-15.12484,1001.21
12.660411358,0.3115129,-7.249947,-1.225991,-0.005799324,0.9561583,0.1371672,-5.401523,-27.33429,-15.12484,1001.21
12.680595398,-0.1174138,-7.608559,-1.103925,0.002945029,0.990577,0.1485405,-5.030047,-27.33534,-15.12336,1001.21
12.700779438,-0.05613857,-7.429253,-1.164958,0.009394282,1.015162,0.170914,-5.030047,-27.33534,-15.12336,1001.21
12.720963478,-0.3012396,-7.54879,-1.287024,0.003214346,0.9692108,0.104811,-5.028403,-27.3338,-15.56249,1001.209
12.741147995,-0.3012396,-7.608559,-1.103925,0.02323196,0.9878122,0.1645133,-5.028403,-27.3338,-15.56249,1001.209
12.761332035,-0.7914416,-8.684396,-1.103925,0.01969535,0.9213386,0.1685553,-5.028403,-27.3338,-15.56249,1001.209
12.781515598,-0.4237901,-8.086709,-1.042892,0.009013445,0.9277625,0.1399896,-5.39346,-27.70515,-14.68558,1001.209
12.799176216,0.1276872,-8.206246,-1.164958,0.01957498,1.01104,0.1620589,-5.39346,-27.70515,-14.68558,1001.209
12.819360256,-0.5463406,-7.728096,-1.164958,0.002352313,0.920566,0.1228264,-5.38211,-28.07292,-15.12458,1001.209
12.839544296,-0.1174138,-7.967171,-0.9818584,0.01259701,0.9903612,0.1358708,-5.38211,-28.07292,-15.12458,1001.209
12.859728813,0.005136684,-8.026939,-1.287024,0.005767217,0.9963693,0.1549766,-5.38211,-28.07292,-15.12458,1001.209
12.879912853,-0.05613857,-7.847633,-1.042892,0.01314669,0.9843099,0.1605661,-5.383754,-28.07447,-14.68545,1001.209
12.900096894,0.06641194,-6.831565,-1.042892,0.01391659,1.000235,0.168179,-5.383754,-28.07447,-14.68545,1001.209
12.920280457,-0.1786891,-6.712028,-0.9208252,0.01013012,0.9944432,0.1602845,-5.753587,-28.07187,-15.12606,1001.21
12.940464497,-0.2399643,-6.891334,-0.7377256,-0.004096827,0.9743123,0.165746,-5.753587,-28.07187,-15.12606,1001.21
12.960648537,-0.1174138,-6.951103,-0.9818584,-0.00887136,0.9307867,0.150294,-5.753587,-28.07187,-15.12606,1001.209
12.980832577,-0.2399643,-6.831565,-1.225991,0.01447342,0.9938061,0.1821619,-5.75664,-28.07474,-14.31054,1001.209
13.001016617,0.1276872,-6.59249,-0.7377256,0.02129898,0.9884175,0.1494439,-5.75664,-28.07474,-14.31054,1001.209
13.021200180,0.1889624,-6.293646,-0.7987587,0.02068053,0.9994491,0.1598815,-5.383754,-28.07447,-14.68545,1001.209
13.041384220,-0.2399643,-6.771796,-0.9208252,-0.001348898,0.9865702,0.1552797,-5.383754,-28.07447,-14.68545,1001.205
13.061568737,-0.3625149,-6.174109,-0.9208252,0.0245932,0.9546975,0.1833194,-5.385163,-28.07579,-14.30906,1001.205
13.079229355,-0.05613857,-6.174109,-0.7377256,0.008967387,1.011003,0.149909,-5.385163,-28.07579,-14.30906,1001.207
13.099413395,-0.3012396,-5.456884,-0.7987587,0.00900008,0.9682428,0.1622006,-5.385163,-28.07579,-14.30906,1001.207
13.119597435,-0.1786891,-5.456884,-0.7377256,-0.001218477,1.015667,0.1529358,-5.015332,-28.07838,-13.86845,1001.207
13.139781475,-0.05613857,-5.098271,-0.859792,0.01570402,1.012807,0.1246324,-5.015332,-28.07838,-13.86845,1001.207
13.159965992,-0.3012396,-4.918965,-0.6156591,0.02185147,0.9825981,0.1507877,-5.385163,-28.07579,-14.30906,1001.207
13.180150032,-0.1786891,-4.67989,-0.859792,-0.006483095,0.9724549,0.1540347,-5.385163,-28.07579,-14.30906,1001.207
13.200333595,0.4340635,-4.321278,-0.5546259,0.007356298,1.024539,0.1506659,-5.385163,-28.07579,-14.30906,1001.207
13.220517635,0.1276872,-4.381046,-0.6766923,-0.005870456,0.9619126,0.1431202,-5.746936,-28.44405,-14.31041,1001.207
13.240701675,0.06641194,-4.500584,-0.6766923,0.00475255,0.9612848,0.1246019,-5.746936,-28.44405,-14.31041,1001.207
13.260885716,-0.7301663,-4.560352,-0.6156591,0.005999771,0.9768118,0.1730795,-5.396514,-27.70802,-13.87005,1001.207
13.281069756,-0.3625149,-4.560352,-1.042892,0.04332064,0.9629467,0.1124135,-5.396514,-27.70802,-13.87005,1001.209
13.301253319,0.005136684,-5.098271,-0.859792,0.008997141,1.008615,0.1464556,-5.396514,-27.70802,-13.87005,1001.209
13.321437359,-0.3625149,-4.67989,-0.6156591,0.002756969,0.9664102,0.1422234,-5.015332,-28.07838,-13.86845,1001.21
13.339098454,0.4340635,-4.799428,-0.859792,0.01025911,1.024392,0.1209769,-5.015332,-28.07838,-13.86845,1001.21
13.359282494,0.005136684,-4.560352,-0.859792,0.008259572,0.9905141,0.1139838,-5.375459,-28.44511,-14.30893,1001.21
13.379466534,0.005136684,-4.560352,-0.9208252,0.01120563,0.9852163,0.163993,-5.375459,-28.44511,-14.30893,1001.21
13.399650574,-0.4237901,-4.620121,-0.859792,0.00902493,0.9654493,0.1996124,-5.375459,-28.44511,-14.30893,1001.21
13.419834614,-0.1174138,-4.500584,-0.859792,0.01802663,0.9794512,0.1692213,-5.758285,-28.07628,-13.8714,1001.21
13.440018177,0.3727882,-4.799428,-0.5546259,0.01634619,0.9998577,0.1122105,-5.758285,-28.07628,-13.8714,1001.21
13.460203171,0.801715,-4.978734,-0.7377256,0.03564418,1.079194,0.1049938,-5.396514,-27.70802,-13.87005,1001.21
13.480386734,-0.4237901,-5.456884,-0.7987587,-0.007661986,0.9509418,0.1229557,-5.396514,-27.70802,-13.87005,1001.21
13.500570774,-0.7301663,-5.935034,-0.7987587,-0.006607403,0.9825395,0.162993,-5.396514,-27.70802,-13.87005,1001.21
13.520754814,0.1889624,-6.413184,-1.042892,-0.001523821,0.9615505,0.1372676,-5.386807,-28.07734,-13.86993,1001.21
13.540938854,-0.3625149,-6.472953,-0.9818584,0.02195479,1.013333,0.1786447,-5.386807,-28.07734,-13.86993,1001.21
13.561122418,0.005136684,-6.532722,-0.9818584,0.01161255,0.991602,0.1558468,-5.759929,-28.07783,-13.43227,1001.21
13.581306458,0.06641194,-6.532722,-0.7987587,0.01702888,0.9825023,0.1532258,-5.759929,-28.07783,-13.43227,1001.21
13.601490498,-0.4850653,-6.712028,-0.9208252,0.007441291,0.9773757,0.1672495,-5.759929,-28.07783,-13.43227,1001.21
13.619151592,-0.1786891,-6.712028,-0.9208252,0.01125077,0.9811919,0.1789975,-5.769635,-27.70852,-13.4324,1001.21
13.639335632,-0.3625149,-7.249947,-1.164958,0.01170917,0.9831074,0.1819542,-5.769635,-27.70852,-13.4324,1001.21
13.659519673,-0.5463406,-7.369484,-1.287024,0.01719066,1.008375,0.1829329,-6.142755,-27.70901,-12.99475,1001.21
13.679703713,-0.4237901,-7.369484,-1.287024,-0.002704421,0.9785722,0.1779929,-6.142755,-27.70901,-12.99475,1001.21
13.699887276,-0.4237901,-7.847633,-1.164958,0.01193525,1.0046,0.1648621,-6.142755,-27.70901,-12.99475,1001.21
13.720071316,-0.1174138,-7.967171,-1.164958,0.01284648,1.008939,0.1683528,-5.761573,-28.07937,-12.99314,1001.21
13.740255356,-0.2399643,-8.325784,-1.225991,-0.00337631,0.9948817,0.1447422,-5.761573,-28.07937,-12.99314,1001.213
13.760439873,-0.5463406,-8.923471,-1.225991,0.005024157,0.9778146,0.1682349,-6.133048,-28.07832,-12.99462,1001.213
13.780623913,-0.2399643,-9.043009,-1.103925,0.009671317,1.032141,0.1693033,-6.133048,-28.07832,-12.99462,1001.213
13.800807953,-0.3625149,-10.35792,-1.287024,0.0003638976,0.963021,0.2360711,-5.761573,-28.07937,-12.99314,1001.213
13.820991993,-0.8527169,-10.17861,-1.409091,-0.0004333883,0.9506485,0.1633259,-5.761573,-28.07937,-12.99314,1001.211
13.841175556,-0.5463406,-10.53723,-1.470124,0.02367423,0.9545658,-0.0001250561,-5.761573,-28.07937,-12.99314,1001.211
13.861359596,-0.3012396,-10.89584,-1.348058,5.260744E-05,0.9499975,0.1808295,-6.126397,-28.45051,-12.17897,1001.211
13.881543637,-0.6076158,-10.71653,-1.592191,0.02235126,1.018855,0.2575805,-6.126397,-28.45051,-12.17897,1001.211
13.899204731,-0.5463406,-10.53723,-1.470124,0.01776603,0.9609228,0.1805331,-5.393149,-28.08329,-12.17614,1001.211
13.919388771,-0.4237901,-10.05908,-1.409091,0.01066174,1.029453,0.1974706,-5.393149,-28.08329,-12.17614,1001.211
13.939572811,-0.6076158,-10.29815,-1.470124,-0.01271415,0.9687108,0.1802454,-5.393149,-28.08329,-12.17614,1001.213
13.959756851,-0.4850653,-8.98324,-1.470124,0.002860173,0.8772287,0.1939827,-5.754922,-28.45156,-12.17749,1001.213
13.979940414,-0.8527169,-9.879771,-1.225991,-0.007294717,0.9579278,0.2496059,-5.754922,-28.45156,-12.17749,1001.213
14.000124454,0.6178893,-10.83607,-1.103925,-0.00700131,1.055552,0.1289178,-5.373738,-28.82192,-12.17588,1001.213
14.020308495,-0.1786891,-9.999309,-1.592191,0.02965678,1.054871,0.1546396,-5.373738,-28.82192,-12.17588,1001.213
14.040492535,-1.649295,-11.25445,-1.348058,-0.001949407,1.034852,0.2204656,-5.373738,-28.82192,-12.17588,1001.213
14.060676098,-0.2399643,-10.71653,-1.836323,0.008995856,1.008509,0.1571584,-6.480103,-29.18963,-11.74106,1001.213
14.080861092,0.06641194,-11.19468,-1.409091,0.005566881,1.053388,0.1215577,-6.480103,-29.18963,-11.74106,1001.213
14.101044655,-0.8527169,-11.01538,-1.592191,0.002614634,0.9382672,0.1460459,-5.75821,-28.45465,-11.29923,1001.207
14.121228695,-0.7914416,-11.43376,-1.042892,-0.01904595,0.9344437,0.1571935,-5.75821,-28.45465,-11.29923,1001.207
14.141412735,0.556614,-10.71653,-1.653224,0.02666794,1.023772,0.1102357,-5.75821,-28.45465,-11.29923,1001.207
14.161596775,0.4953387,-10.17861,-1.531157,0.005501188,0.9793311,0.1137665,-5.767915,-28.08533,-11.29936,1001.207
14.179257870,0.005136684,-9.401621,-1.348058,-0.01802896,1.049982,0.1366091,-5.767915,-28.08533,-11.29936,1001.205
14.199441910,-0.3625149,-9.222315,-1.348058,-0.01243484,0.9462311,0.1510915,-5.730502,-29.56392,-10.92245,1001.205
14.219625950,0.005136684,-9.043009,-1.653224,0.005155316,1.047588,0.1194972,-5.730502,-29.56392,-10.92245,1001.203
14.239809513,-1.036543,-9.102777,-1.042892,-0.009513219,0.9834073,0.1688535,-5.730502,-29.56392,-10.92245,1001.203
14.259993553,-0.6076158,-8.744164,-1.103925,-0.02528497,0.9725958,0.111732,-6.119979,-28.82291,-11.30058,1001.202
14.280177593,-0.7301663,-8.923471,-1.287024,0.006467126,0.9388523,0.1416725,-6.119979,-28.82291,-11.30058,1001.202
14.300361633,0.06641194,-8.146478,-1.164958,0.03075662,0.9644856,0.1338722,-6.119979,-28.82291,-11.30058,1001.203
14.320545673,0.06641194,-7.668327,-1.348058,0.0386728,1.027503,0.1428932,-6.119979,-28.82291,-11.30058,1001.203
14.340729237,-0.6076158,-7.309715,-0.9208252,0.01369055,0.9391012,0.1762145,-5.749913,-28.82529,-10.9227,1001.202
14.360913277,-0.7301663,-6.951103,-1.348058,-0.005091672,1.016279,0.183122,-5.749913,-28.82529,-10.9227,1001.202
14.381097794,-0.6076158,-7.190178,-0.7987587,-0.01832899,0.9943655,0.1744358,-5.749913,-28.82529,-10.9227,1001.202
14.401281834,0.06641194,-7.249947,-1.225991,-0.01135598,0.9363122,0.1757095,-6.110272,-29.19223,-11.30045,1001.202
14.421465874,-0.1174138,-7.130409,-1.103925,0.02464743,0.8721327,0.1052911,-6.110272,-29.19223,-11.30045,1001.202
14.439126492,0.4340635,-6.054571,-0.7987587,0.01082603,1.057472,0.108493,-6.121388,-28.82423,-10.92418,1001.202
14.459310532,0.4340635,-5.397115,-0.7987587,0.04273611,1.051226,0.1019969,-6.121388,-28.82423,-10.92418,1001.202
14.479495049,-0.05613857,-4.261509,-0.3715262,0.0008098862,0.8488511,0.1209227,-6.121388,-28.82423,-10.92418,1001.202
14.499679089,-0.4237901,-5.397115,-0.9818584,-0.01052652,1.027727,0.1444296,-5.370374,-29.1972,-10.48197,1001.202
14.519862652,0.8629903,-5.516653,-0.859792,0.0231976,1.031404,0.117204,-5.370374,-29.1972,-10.48197,1001.202
14.540046692,0.6178893,-6.11434,-1.042892,0.03041946,1.07117,0.1734513,-6.123033,-28.82578,-10.48505,1001.202
14.560230732,0.06641194,-6.652259,-1.042892,0.02830923,0.968241,0.09356344,-6.123033,-28.82578,-10.48505,1001.198
14.580414772,-0.2399643,-6.174109,-1.225991,0.009140223,0.9971742,0.1277387,-6.123033,-28.82578,-10.48505,1001.198
14.600598335,-0.1174138,-6.353415,-0.7987587,-0.02447986,0.9856152,0.1192873,-6.123033,-28.82578,-10.48505,1001.202
14.620782375,-0.2399643,-5.875265,-1.164958,-0.00575957,0.9923034,0.1568594,-6.123033,-28.82578,-10.48505,1001.202
14.640966416,-0.4850653,-6.11434,-0.859792,0.01013686,0.9940313,0.1529775,-6.121388,-28.82423,-10.92418,1001.202
14.661150456,0.1276872,-5.277577,-1.287024,0.01757056,0.9777287,0.1468049,-6.121388,-28.82423,-10.92418,1001.202
14.681334973,0.3115129,-5.576421,-0.5546259,0.01288466,1.046893,0.1034147,-6.121388,-28.82423,-10.92418,1001.199
14.701519013,-0.2399643,-5.098271,-0.859792,-0.003731302,1.024678,0.12003,-6.111682,-29.19355,-10.92405,1001.199
14.719179630,-0.3625149,-5.695959,-1.042892,0.01551032,0.9494976,0.1078089,-6.111682,-29.19355,-10.92405,1001.202
14.739363671,0.556614,-3.962665,-0.6766923,0.04197919,0.9938198,0.124218,-6.108319,-29.56882,-9.230137,1001.202
14.759547234,-0.3625149,-4.918965,-0.7377256,0.00272215,0.9297034,0.1303055,-6.108319,-29.56882,-9.230137,1001.194
14.779731751,-0.2399643,-3.783359,-0.9208252,-0.009780542,1.046523,0.1068468,-6.108319,-29.56882,-9.230137,1001.194
14.799915791,-0.1786891,-4.261509,-0.3715262,0.02015944,1.003016,0.1414626,-5.743495,-29.19769,-10.04431,1001.194
14.820099831,-0.2399643,-3.305209,-0.6766923,2.324051E-05,0.9930331,0.140808,-5.743495,-29.19769,-10.04431,1001.194
14.840283871,0.005136684,-3.843127,-0.7377256,0.01032853,0.9788508,0.1205621,-6.478385,-29.56645,-9.608012,1001.194
14.860467911,0.1889624,-3.783359,-0.6156591,0.02543286,1.005372,0.156099,-6.478385,-29.56645,-9.608012,1001.194
14.880651474,0.1889624,-3.72359,-0.5546259,-0.01815489,0.9816098,0.09292306,-6.475097,-29.56336,-10.48627,1001.195
14.900835514,-0.3012396,-3.962665,-0.6766923,-0.00145367,0.9953609,0.148155,-6.475097,-29.56336,-10.48627,1001.195
14.921019554,-0.05613857,-3.902896,-0.6766923,0.02343661,1.011411,0.1304324,-6.475097,-29.56336,-10.48627,1001.201
14.941203594,0.1276872,-3.604052,-0.6156591,0.01038787,0.9740603,0.1151147,-6.126321,-28.82887,-9.606791,1001.201
14.961387157,-0.2399643,-3.962665,-0.6156591,0.005078897,0.933968,0.1435242,-6.126321,-28.82887,-9.606791,1001.193
14.981572151,0.06641194,-3.72359,-0.7377256,0.02377047,1.023392,0.1442935,-6.116614,-29.19818,-9.606663,1001.193
14.999232769,0.06641194,-3.843127,-0.6766923,0.006193906,1.001481,0.1288014,-6.116614,-29.19818,-9.606663,1001.197
15.019416332,-0.1786891,-4.500584,-0.7377256,-0.002998279,0.9640812,0.124182,-6.116614,-29.19818,-9.606663,1001.197
15.039600372,-0.4237901,-4.500584,-0.7377256,0.02546638,0.9626786,0.1615797,-6.486445,-29.19559,-10.04727,1001.199
15.059784412,-0.1174138,-4.321278,-0.5546259,0.01286126,1.008222,0.1430361,-6.486445,-29.19559,-10.04727,1001.199
15.079968452,-0.1174138,-4.620121,-0.7987587,0.00782307,0.9865308,0.1241239,-5.754846,-28.82992,-9.605312,1001.201
15.100152969,-0.1786891,-5.217809,-0.7987587,0.003694135,1.008662,0.1338131,-5.754846,-28.82992,-9.605312,1001.201
15.120337009,-0.3012396,-5.098271,-0.7987587,0.008673559,0.995545,0.1447377,-5.754846,-28.82992,-9.605312,1001.199
15.140520573,0.005136684,-5.397115,-0.9208252,0.01406171,0.9889635,0.1324348,-5.746549,-29.20056,-9.228786,1001.199
15.160704613,0.1276872,-5.63619,-0.859792,0.01028406,0.9819611,0.1488458,-5.746549,-29.20056,-9.228786,1001.195
15.180888653,-0.1174138,-5.576421,-0.7377256,0.01510538,1.021597,0.1656805,-6.499206,-28.82914,-9.231873,1001.195
15.201072693,-0.1174138,-5.15804,-0.7987587,0.02239474,1.017601,0.1398016,-6.499206,-28.82914,-9.231873,1001.195
15.221256733,-0.05613857,-4.739659,-0.7987587,-0.004640932,0.979855,0.1434735,-6.499206,-28.82914,-9.231873,1001.195
15.241440296,0.1276872,-4.440815,-0.5546259,0.001611318,0.9814736,0.1361976,-6.126321,-28.82887,-9.606791,1001.195
15.259101868,0.1889624,-4.141971,-0.6156591,0.002557645,0.9828975,0.1406036,-6.126321,-28.82887,-9.606791,1001.195
15.279285908,-0.05613857,-3.484515,-0.4935927,0.006896894,0.9828943,0.1474094,-5.735435,-29.56855,-9.605055,1001.195
15.299469471,-0.1174138,-2.886827,-0.2494598,0.008454165,0.9736358,0.1550093,-5.735435,-29.56855,-9.605055,1001.195
15.319653511,-0.1174138,-2.528215,-0.3715262,0.005601055,0.9701349,0.1617564,-5.735435,-29.56855,-9.605055,1001.195
15.339837551,-0.05613857,-1.870759,-0.3715262,0.01666851,0.972208,0.1647007,-6.489499,-29.19846,-9.231744,1001.195
15.360021591,0.005136684,-1.452377,-0.310493,0.0076554,0.9998173,0.1521225,-6.489499,-29.19846,-9.231744,1001.191
15.380205155,-0.05613857,-1.452377,-0.2494598,0.005996306,1.017141,0.161713,-5.756255,-28.83125,-9.228915,1001.191
15.400390148,0.005136684,-1.273071,-0.1273933,0.00374432,0.9644388,0.1470488,-5.756255,-28.83125,-9.228915,1001.193
15.420573711,0.1276872,-1.512146,-0.06636012,0.01417276,0.9797223,0.1361445,-5.756255,-28.83125,-9.228915,1001.193
15.440757752,0.06641194,-1.81099,-0.2494598,0.009637961,0.9955544,0.145223,-6.12773,-28.83019,-9.230393,1001.193
15.460941792,0.06641194,-1.571915,-0.2494598,0.01495487,0.9947176,0.1398462,-6.12773,-28.83019,-9.230393,1001.193
15.481125832,-0.1786891,-1.631683,-0.1884266,0.0146243,0.98204,0.1473812,-5.367011,-29.57247,-8.788049,1001.193
15.501309872,-0.1786891,-1.512146,-0.1273933,0.009212962,0.9905832,0.1572899,-5.367011,-29.57247,-8.788049,1001.193
15.521493435,0.005136684,-1.273071,-0.06636012,0.01304151,0.9930669,0.1568469,-6.481439,-29.56932,-8.792484,1001.193
15.539155007,0.1889624,-1.452377,-0.1273933,0.002515451,0.9861962,0.1499141,-6.481439,-29.56932,-8.792484,1001.191
15.559338570,0.005136684,-1.452377,-0.1273933,0.006918679,0.9808168,0.1614793,-6.481439,-29.56932,-8.792484,1001.191
15.579522610,0.06641194,-1.452377,-0.1884266,0.01382842,0.9678444,0.1607258,-6.098613,-29.93814,-9.230008,1001.197
15.599706650,0.1276872,-1.870759,-0.1884266,0.01231089,0.9736013,0.1642481,-6.098613,-29.93814,-9.230008,1001.197
15.619890690,-0.3012396,-1.990296,-0.2494598,0.01272891,0.9789653,0.1614341,-6.479795,-29.56777,-9.231615,1001.197
15.640074730,0.005136684,-1.930527,-0.2494598,0.008752109,0.9884648,0.1747658,-6.479795,-29.56777,-9.231615,1001.197
15.660258293,-0.3625149,-1.691452,-0.06636012,0.009652124,0.9938166,0.1738972,-6.479795,-29.56777,-9.231615,1001.197
15.680442333,-0.3012396,-1.512146,-0.2494598,0.01236406,0.9692711,0.1612428,-6.85127,-29.56672,-9.233094,1001.197
15.700626850,0.005136684,-1.751221,-0.005326898,0.005365931,0.98948,0.1650591,-6.85127,-29.56672,-9.233094,1001.197
15.720810890,-0.1174138,-1.631683,-0.1884266,0.008542856,1.00607,0.158084,-6.489499,-29.19846,-9.231744,1001.197
15.740994930,-0.1786891,-1.751221,-0.1273933,0.01168984,0.9853875,0.1474517,-6.489499,-29.19846,-9.231744,1001.195
15.761178971,0.06641194,-1.691452,-0.1273933,0.007889881,0.9804193,0.1541712,-6.489499,-29.19846,-9.231744,1001.195
15.781362534,-0.05613857,-1.870759,-0.2494598,0.01578926,1.00531,0.14784,-6.860974,-29.19741,-9.233222,1001.195
15.801546574,-0.05613857,-1.691452,-0.1273933,0.006942331,0.9788939,0.1599814,-6.860974,-29.19741,-9.233222,1001.195
15.819208145,0.005136684,-1.691452,-0.1273933,0.01604582,0.9838589,0.1615261,-5.748193,-29.2021,-8.789656,1001.199
15.839391709,0.005136684,-1.631683,-0.1273933,0.01406507,0.9882715,0.1533444,-5.748193,-29.2021,-8.789656,1001.199
15.859575749,0.06641194,-1.930527,-0.2494598,0.01029592,0.9810021,0.1478536,-5.748193,-29.2021,-8.789656,1001.199
15.879759789,0.005136684,-1.631683,-0.06636012,0.009154095,0.9954121,0.1588454,-6.12773,-28.83019,-9.230393,1001.199
15.899943829,-0.3012396,-1.571915,-0.1884266,0.01226986,0.9769966,0.1638288,-6.12773,-28.83019,-9.230393,1001.199
15.920127392,-0.05613857,-1.571915,-0.2494598,0.01281648,0.9716614,0.1651821,-6.118024,-29.19951,-9.230266,1001.199
15.940311432,-0.1786891,-1.631683,-0.1884266,0.008981598,0.9696234,0.1695267,-6.118024,-29.19951,-9.230266,1001.201
15.960495472,0.005136684,-1.273071,-0.1884266,0.007078026,0.9678118,0.1539229,-6.118024,-29.19951,-9.230266,1001.201
15.980679512,0.005136684,-1.452377,-0.1273933,0.006501126,0.9754915,0.1604013,-6.479795,-29.56777,-9.231615,1001.201
16.000864029,0.06641194,-1.33284,-0.005326898,0.01325873,0.9751507,0.1560054,-6.479795,-29.56777,-9.231615,1001.201
16.021048069,-0.1786891,-1.33284,-0.1884266,0.006790021,0.9915112,0.1577984,-5.727138,-29.93919,-9.228529,1001.203
16.041232109,-0.05613857,-1.213302,-0.005326898,0.01120046,0.9857585,0.1581647,-5.727138,-29.93919,-9.228529,1001.203
16.061415672,-0.1174138,-1.153533,-0.1273933,0.01082265,0.9769317,0.1682089,-6.108319,-29.56882,-9.230137,1001.203
16.079076290,0.1276872,-1.153533,-0.1884266,0.00473179,0.9624771,0.1509012,-6.108319,-29.56882,-9.230137,1001.203
16.099260807,-0.1786891,-1.33284,-0.1884266,0.01443931,0.9571573,0.1644061,-6.108319,-29.56882,-9.230137,1001.205
16.119444847,-0.1174138,-1.33284,-0.1273933,0.01075879,0.9823176,0.1624765,-6.109963,-29.57037,-8.791006,1001.205
16.139628887,0.06641194,-1.392608,-0.2494598,0.01883936,0.992131,0.1621723,-6.109963,-29.57037,-8.791006,1001.206
16.159812927,0.1276872,-1.093765,-0.1884266,0.01094702,0.9668521,0.1587641,-6.121312,-29.2026,-8.352005,1001.206
16.179996967,0.005136684,-1.213302,-0.1273933,0.005737577,0.998767,0.157457,-6.121312,-29.2026,-8.352005,1001.206
16.200180531,0.005136684,-1.571915,-0.1884266,0.01933379,0.9912081,0.1582606,-6.121312,-29.2026,-8.352005,1001.206
16.220364571,-0.05613857,-1.452377,-0.1884266,0.01214754,0.9872452,0.1562464,-6.470088,-29.93708,-9.231486,1001.205
16.240548611,0.005136684,-1.691452,-0.310493,0.01306364,0.9910185,0.1679978,-6.470088,-29.93708,-9.231486,1001.205
16.260732651,0.005136684,-1.452377,-0.4325595,0.005947063,0.9811807,0.1721928,-6.108319,-29.56882,-9.230137,1001.206
16.280916214,0.06641194,-1.273071,-0.2494598,0.02023916,0.9960322,0.1617609,-6.108319,-29.56882,-9.230137,1001.206
16.301101208,-0.3012396,-1.512146,-0.310493,0.01120081,0.9857875,0.1552458,-6.108319,-29.56882,-9.230137,1001.206
16.321284771,-0.4850653,-1.751221,-0.1273933,0.01041915,0.9698589,0.1967781,-6.118024,-29.19951,-9.230266,1001.206
16.341468811,-0.1174138,-1.870759,-0.4325595,0.02489013,1.010058,0.1712768,-6.118024,-29.19951,-9.230266,1001.206
16.359129429,-0.1174138,-2.408677,-0.4325595,0.01469997,1.015337,0.1611779,-6.473376,-29.94017,-8.353226,1001.206
16.379313469,0.005136684,-2.647752,-0.5546259,0.01929323,0.9549953,0.1453793,-6.473376,-29.94017,-8.353226,1001.206
16.399497986,-0.1174138,-2.28914,-0.5546259,0.01195902,1.002687,0.1623913,-6.473376,-29.94017,-8.353226,1001.206
16.419682026,0.06641194,-2.229371,-0.310493,0.007065049,0.9290324,0.1555883,-5.728782,-29.94073,-8.789398,1001.206
16.439866066,0.1276872,-1.990296,-0.1884266,0.003348856,0.996707,0.1661783,-5.728782,-29.94073,-8.789398,1001.206
16.460049629,-0.2399643,-2.109833,-0.2494598,0.007807769,0.987205,0.153819,-6.109963,-29.57037,-8.791006,1001.206
16.480233669,-0.2399643,-2.348909,-0.3715262,0.01606597,0.9816464,0.1892177,-6.109963,-29.57037,-8.791006,1001.206
16.500417709,0.06641194,-1.930527,-0.310493,0.01387503,0.9639407,0.163568,-6.109963,-29.57037,-8.791006,1001.208
16.520601750,-0.1174138,-1.631683,-0.1273933,0.01285488,0.9680489,0.1874936,-6.109963,-29.57037,-8.791006,1001.208
16.540785790,0.005136684,-1.452377,-0.1273933,0.01039637,0.9718542,0.1909786,-6.109963,-29.57037,-8.791006,1001.208
16.560969353,0.2502377,-1.213302,0.05570632,0.002333228,0.9605731,0.1927135,-5.736844,-29.56987,-9.228658,1001.208
16.581153393,0.005136684,-1.273071,-0.06636012,0.003117549,0.9757519,0.1779286,-5.736844,-29.56987,-9.228658,1001.208
16.601337433,-0.4237901,-1.691452,-0.1273933,0.009196204,0.9911366,0.1991474,-5.736844,-29.56987,-9.228658,1001.208
16.621521950,0.3727882,-1.631683,-0.310493,0.02645333,1.00032,0.1783805,-5.736844,-29.56987,-9.228658,1001.208
16.639182568,-0.05613857,-1.213302,-0.3715262,0.0250755,0.9943562,0.1914024,-5.736844,-29.56987,-9.228658,1001.208
16.659366608,0.005136684,-0.9144584,-0.1884266,0.006800563,0.989474,0.2166351,-6.111608,-29.57191,-8.351876,1001.208
16.679550648,-0.1174138,-0.8546896,-0.005326898,-0.001120373,0.9666796,0.2069504,-6.111608,-29.57191,-8.351876,1001.212
16.699734211,-0.05613857,-0.9742271,0.1777728,0.004421914,0.9872772,0.1903194,-6.108319,-29.56882,-9.230137,1001.212
16.719919205,0.06641194,-1.033996,-0.1884266,0.021165,0.9590259,0.1814637,-6.108319,-29.56882,-9.230137,1001.214
16.740102768,-0.1786891,-1.990296,-0.1884266,0.01519672,1.013635,0.1869326,-6.108319,-29.56882,-9.230137,1001.214
16.760286808,-0.05613857,-1.153533,-0.1273933,0.0211512,1.000439,0.1584406,-5.728782,-29.94073,-8.789398,1001.212
16.780470848,-0.7301663,-1.512146,-0.3715262,0.01962389,1.006357,0.1945674,-5.728782,-29.94073,-8.789398,1001.212
16.800654888,-0.6688911,-1.691452,-0.310493,0.03871175,0.9436733,0.1923256,-6.109963,-29.57037,-8.791006,1001.212
16.820838452,0.9242656,-0.9144584,-0.06636012,0.01999354,1.095741,0.1720066,-6.109963,-29.57037,-8.791006,1001.212
16.841022492,-0.1174138,-0.07769579,-0.310493,0.02883517,0.9234892,0.1607991,-6.109963,-29.57037,-8.791006,1001.212
16.861206532,0.4340635,-0.7351521,-0.005326898,0.02817461,1.058703,0.1080053,-5.746549,-29.20056,-9.228786,1001.212
16.881390572,-0.9752674,-1.213302,-0.1884266,-0.02051385,1.014869,0.2045266,-5.746549,-29.20056,-9.228786,1001.212
16.901574612,-0.2399643,-0.8546896,0.238806,-0.0103034,1.008359,0.1922181,-6.852914,-29.56826,-8.793963,1001.212
16.919235707,-0.9752674,-0.3765396,-0.06636012,0.002055023,0.9434978,0.2040541,-6.852914,-29.56826,-8.793963,1001.212
16.939420223,-0.05613857,-0.6156146,-0.06636012,0.006306166,1.031016,0.1799908,-6.852914,-29.56826,-8.793963,1001.212
16.959603786,0.005136684,-0.3167708,-0.1273933,0.02799885,0.9523838,0.1774296,-6.479795,-29.56777,-9.231615,1001.214
16.979787350,0.1276872,-0.7351521,-0.1884266,0.001542278,0.9477549,0.1160669,-6.479795,-29.56777,-9.231615,1001.214
16.999971390,0.06641194,0.3406855,0.238806,0.009873638,0.9772248,0.08841586,-6.468678,-29.93576,-9.607883,1001.214
17.020155907,-0.3625149,1.536061,0.1167395,0.02285065,0.9806346,0.1059814,-6.468678,-29.93576,-9.607883,1001.214
17.040339947,-0.05613857,2.01421,0.4219056,0.01666741,1.013702,0.08474854,-6.468678,-29.93576,-9.607883,1001.21
17.060523987,-0.5463406,3.149817,0.2998392,-0.00251563,1.003769,0.1293461,-6.118024,-29.19951,-9.230266,1001.21
17.080708027,-0.7301663,2.432592,0.1167395,-0.008228886,0.9971546,0.1525797,-6.118024,-29.19951,-9.230266,1001.212
17.100891590,-0.6076158,1.834904,-0.005326898,-0.01760667,0.9734988,0.2275462,-5.735435,-29.56855,-9.605055,1001.212
17.121075630,-0.4237901,1.237217,-0.06636012,0.02376415,0.8633164,0.2111938,-5.735435,-29.56855,-9.605055,1001.212
17.141259670,-0.3625149,0.2809168,0.05570632,0.02607413,1.031024,0.2086706,-5.735435,-29.56855,-9.605055,1001.212
17.161443710,-0.2399643,1.117679,-0.310493,0.1039326,1.094709,0.1572654,-6.116614,-29.19818,-9.606663,1001.212
17.179104805,-1.220368,0.460223,0.4219056,0.02282991,0.9412133,0.1723502,-6.116614,-29.19818,-9.606663,1001.212
17.199288845,-0.7301663,0.938373,0.1167395,3.671321E-05,0.9109768,0.2068195,-5.735435,-29.56855,-9.605055,1001.212
17.219472885,-0.4237901,1.296986,-0.06636012,-0.01388944,0.9861718,0.1767,-5.735435,-29.56855,-9.605055,1001.212
17.239656448,-0.05613857,0.938373,0.1777728,-0.004481691,1.006487,0.1454601,-5.735435,-29.56855,-9.605055,1001.212
17.259840488,0.801715,0.9981418,-0.1884266,-0.005998158,1.051978,0.1487956,-5.735435,-29.56855,-9.605055,1001.212
17.280024529,-0.05613857,1.117679,-0.005326898,0.02230719,0.9059701,0.1098569,-5.735435,-29.56855,-9.605055,1001.212
17.300208569,-0.3012396,1.715367,0.2998392,0.03350041,1.016047,0.1665168,-5.365367,-29.57092,-9.22718,1001.212
17.320393086,-0.1786891,1.894673,0.05570632,0.00181922,1.044017,0.1325692,-5.365367,-29.57092,-9.22718,1001.212
17.340577126,0.2502377,1.954442,0.2998392,0.006319634,0.9508983,0.1482368,-6.105266,-29.56595,-10.04566,1001.212
17.360760689,-0.4237901,2.372823,0.05570632,0.008510618,1.009223,0.1333305,-6.105266,-29.56595,-10.04566,1001.21
17.380944729,0.1276872,2.492361,0.05570632,-0.001790343,1.063409,0.1261461,-6.105266,-29.56595,-10.04566,1001.21
17.401128769,-0.6076158,2.850973,0.4219056,0.004369165,0.9529664,0.1322232,-5.714379,-30.30563,-10.04393,1001.208
17.421312809,0.06641194,3.269354,0.6050053,-0.00214448,1.012045,0.1747619,-5.714379,-30.30563,-10.04393,1001.208
17.441496849,0.1276872,3.209586,0.788105,0.0115301,0.9596841,0.1007175,-6.105266,-29.56595,-10.04566,1001.206
17.459157944,0.3115129,3.269354,0.5439721,0.00503422,0.9380311,0.1246279,-6.105266,-29.56595,-10.04566,1001.206
17.479341984,0.005136684,3.388892,0.5439721,0.0154328,0.9953395,0.12672,-6.105266,-29.56595,-10.04566,1001.208
17.499526024,0.06641194,3.568198,0.4219056,0.02581165,0.9746338,0.1292145,-5.350963,-29.93583,-10.48171,1001.208
17.519709587,0.1889624,3.50843,0.5439721,0.01712984,1.014012,0.151903,-5.350963,-29.93583,-10.48171,1001.208
17.539893627,-0.1174138,3.50843,0.1167395,0.02238509,0.9790973,0.1137371,-5.362313,-29.56805,-10.04271,1001.206
17.560077667,-0.2399643,3.329123,0.2998392,0.00762324,0.9623608,0.166952,-5.362313,-29.56805,-10.04271,1001.206
17.580261707,0.06641194,3.030279,0.5439721,0.01247434,1.000581,0.1312073,-5.362313,-29.56805,-10.04271,1001.206
17.600445271,0.3727882,1.954442,0.4219056,-0.01235009,0.9793093,0.1381216,-6.48809,-29.19713,-9.608141,1001.206
17.620630264,-0.1786891,1.296986,0.1167395,0.01394146,0.9587673,0.1478948,-6.48809,-29.19713,-9.608141,1001.206
17.640813828,0.1276872,1.117679,0.1167395,0.02662205,0.9871204,0.1416251,-5.72244,-29.93477,-10.48319,1001.206
17.660997868,0.1889624,0.699298,0.05570632,0.0235877,1.038339,0.1514018,-5.72244,-29.93477,-10.48319,1001.205
17.681181908,-0.4850653,0.5797605,-0.1273933,0.01511129,0.9814712,0.1566144,-5.72244,-29.93477,-10.48319,1001.205
17.701365948,0.06641194,0.4004543,0.1777728,0.01619308,0.9717936,0.1569078,-6.484801,-29.19404,-10.4864,1001.205
17.721549988,0.005136684,0.460223,0.05570632,0.0009857635,0.9532413,0.148291,-6.484801,-29.19404,-10.4864,1001.205
17.739211083,0.1276872,0.699298,0.05570632,-0.004747924,0.9884623,0.1548355,-5.743495,-29.19769,-10.04431,1001.205
17.759395123,-0.2399643,0.7590668,-0.005326898,-0.006555232,0.9384804,0.159688,-5.743495,-29.19769,-10.04431,1001.205
17.779578686,0.1889624,0.9981418,0.05570632,0.004640636,1.0101,0.1367597,-5.743495,-29.19769,-10.04431,1001.205
17.799762726,-0.05613857,1.296986,0.1777728,0.005090452,1.013245,0.1134651,-6.124677,-28.82732,-10.04592,1001.205
17.819946766,-0.1174138,1.356754,0.4219056,-0.006624001,0.9453998,0.09705536,-6.124677,-28.82732,-10.04592,1001.205
17.840130806,0.3115129,1.894673,0.1167395,0.007989174,1.012761,0.1178305,-6.11497,-29.19664,-10.04579,1001.205
17.860314846,-0.1174138,1.416523,0.3608724,0.02301999,1.006163,0.1215706,-6.11497,-29.19664,-10.04579,1001.205
17.880498409,-0.1174138,1.536061,0.1167395,0.00706652,0.9687998,0.1519961,-5.741851,-29.19614,-10.48344,1001.205
17.900682450,-0.1174138,1.655598,0.2998392,0.02513457,0.9905135,0.1392615,-5.741851,-29.19614,-10.48344,1001.205
17.920866966,0.3727882,1.416523,0.238806,0.01996597,0.979372,0.1312632,-5.741851,-29.19614,-10.48344,1001.205
17.941051006,0.1889624,1.117679,0.05570632,-0.005488706,0.9700958,0.1491206,-6.111682,-29.19355,-10.92405,1001.209
17.961235046,0.3115129,0.9981418,0.1777728,0.01829766,1.037518,0.1285237,-6.111682,-29.19355,-10.92405,1001.209
17.981419086,-0.1174138,1.057911,-0.005326898,0.01417835,1.01886,0.1471374,-5.743495,-29.19769,-10.04431,1001.209
17.999079704,0.06641194,0.3406855,0.05570632,-0.00215689,1.013928,0.131493,-5.743495,-29.19769,-10.04431,1001.209
18.019264221,0.1889624,-0.1972333,-0.1273933,0.01698286,0.9864543,0.1455187,-5.743495,-29.19769,-10.04431,1001.208
18.039448261,-0.05613857,-0.7351521,0.1167395,0.006421058,0.9824463,0.143022,-6.101977,-29.56286,-10.92392,1001.208
18.059631825,0.06641194,-0.9742271,-0.3715262,0.01934699,0.99036,0.1460792,-6.101977,-29.56286,-10.92392,1001.206
18.079815865,-0.3012396,-1.81099,-0.1884266,0.0008604055,0.963239,0.1660062,-5.740207,-29.1946,-10.92257,1001.206
18.099999905,-0.1786891,-1.33284,-0.310493,0.02737904,1.003918,0.158987,-5.740207,-29.1946,-10.92257,1001.208
18.120183945,0.3727882,-1.093765,-0.005326898,0.00145568,0.9938156,0.1617446,-5.740207,-29.1946,-10.92257,1001.208
18.140367508,0.005136684,-1.273071,-0.06636012,0.007571759,0.966831,0.1558491,-5.732146,-29.56546,-10.48331,1001.208
18.160551548,0.1889624,-0.7949209,0.05570632,0.01518254,0.9757265,0.1496883,-5.732146,-29.56546,-10.48331,1001.208
18.180735588,0.2502377,-0.4363083,-0.005326898,-0.004376696,0.9580689,0.1420688,-5.749913,-28.82529,-10.9227,1001.208
18.200919628,0.06641194,0.3406855,0.238806,0.01624913,1.007347,0.1386345,-5.749913,-28.82529,-10.9227,1001.208
18.221104145,0.1889624,0.6395292,0.05570632,0.01050851,1.003318,0.1453754,-5.749913,-28.82529,-10.9227,1001.208
18.241288185,0.005136684,0.8786043,0.3608724,0.02565038,0.9874794,0.1528251,-6.473453,-29.56181,-10.9254,1001.208
18.261472225,-0.1174138,0.7590668,0.1167395,-0.0004945062,0.9562612,0.1347285,-6.473453,-29.56181,-10.9254,1001.208
18.279132843,0.005136684,1.117679,0.1777728,0.01559521,0.9419717,0.1339355,-6.854632,-29.19145,-10.92701,1001.208
18.299316406,0.06641194,0.9981418,0.1777728,-0.007781241,0.9604743,0.1387153,-6.854632,-29.19145,-10.92701,1001.208
18.319500923,0.06641194,0.3406855,0.238806,-7.633142E-05,1.000314,0.1881511,-6.854632,-29.19145,-10.92701,1001.208
18.339684963,0.06641194,-0.3765396,-0.005326898,0.02376865,0.9835953,0.1508046,-6.473453,-29.56181,-10.9254,1001.21
18.359869003,-0.2399643,-0.9144584,-0.06636012,-0.002009379,0.9612682,0.1649982,-6.473453,-29.56181,-10.9254,1001.21
18.380053043,0.005136684,-0.5558459,-0.1884266,0.0200852,0.9688675,0.1646296,-6.475097,-29.56336,-10.48627,1001.21
18.400237084,0.3115129,-0.8546896,-0.1273933,0.01079431,1.019082,0.1685566,-6.475097,-29.56336,-10.48627,1001.21
18.420420647,0.06641194,-0.6753834,-0.005326898,-0.001214722,0.9753625,0.1618699,-6.475097,-29.56336,-10.48627,1001.21
18.440604687,0.06641194,-0.3167708,-0.1884266,0.02051125,1.013573,0.1523759,-6.483157,-29.1925,-10.92553,1001.21
18.460788727,-0.1174138,-0.4363083,0.05570632,0.009865288,0.9765344,0.1579841,-6.483157,-29.1925,-10.92553,1001.209
18.480972767,0.06641194,-0.01792703,-0.1273933,0.01414596,0.9813845,0.1639128,-6.484801,-29.19404,-10.4864,1001.209
18.501156330,-0.05613857,0.460223,0.05570632,0.0001893645,0.978649,0.1745841,-6.484801,-29.19404,-10.4864,1001.21
18.521341324,-0.6688911,1.057911,0.2998392,0.02080869,0.9877442,0.2165803,-6.483157,-29.1925,-10.92553,1001.21
18.541524887,0.3727882,0.699298,0.1167395,-0.008443209,0.9340798,0.2097221,-6.483157,-29.1925,-10.92553,1001.21
18.559185505,0.005136684,0.460223,0.238806,0.03542727,0.9366138,0.1664017,-6.483157,-29.1925,-10.92553,1001.21
18.579369545,0.1276872,0.04184172,-0.06636012,0.01413177,0.9821505,0.1843647,-6.113326,-29.1951,-10.48492,1001.21
18.599553585,0.2502377,-0.8546896,-0.1273933,0.01379925,0.9702807,0.1593143,-6.113326,-29.1951,-10.48492,1001.214
18.619738102,-0.1786891,-0.4363083,0.05570632,0.01658412,0.9788054,0.1833217,-6.103621,-29.56441,-10.48479,1001.214
18.639922142,0.06641194,-1.093765,0.05570632,0.0002140684,0.9768129,0.1643294,-6.103621,-29.56441,-10.48479,1001.214
18.660106182,0.2502377,-0.4960771,-0.06636012,0.01608957,0.9797186,0.1882064,-6.103621,-29.56441,-10.48479,1001.214
18.680289745,0.06641194,-1.392608,-0.06636012,0.004975323,0.9418882,0.1753093,-6.481748,-29.19117,-11.30193,1001.216
18.700473786,-0.1174138,-1.33284,-0.06636012,0.0200781,0.9692505,0.1748555,-6.481748,-29.19117,-11.30193,1001.216
18.720657826,-0.05613857,-1.273071,-0.06636012,0.02469996,0.9460709,0.1739034,-6.483157,-29.1925,-10.92553,1001.216
18.740841866,-0.1786891,-1.751221,-0.2494598,-0.00417488,0.980464,0.1804655,-6.483157,-29.1925,-10.92553,1001.216
18.761025906,0.4340635,-1.751221,-0.310493,0.02115085,1.00041,0.1613596,-6.483157,-29.1925,-10.92553,1001.216
18.781209469,0.3727882,-1.33284,-0.1884266,0.005378311,0.9885643,0.1596885,-6.100568,-29.56154,-11.30032,1001.216
18.781209469,0.3727882,-1.33284,-0.1884266,0.005378311,0.9885643,0.1596885,-6.100568,-29.56154,-11.30032,1001.216
18.801393509,-0.1786891,-0.8546896,-0.1884266,0.01173382,0.9812666,0.172186,-6.100568,-29.56154,-11.30032,1001.216
18.821578026,0.005136684,-0.9742271,-0.06636012,0.00685254,0.9860144,0.1747201,-6.492864,-28.82318,-10.92566,1001.216
18.839238644,-0.2399643,-0.7351521,0.05570632,0.01518653,0.935441,0.1566764,-6.492864,-28.82318,-10.92566,1001.216
18.859422684,-0.1786891,-0.8546896,-0.005326898,0.02171414,0.9935449,0.170468,-6.492864,-28.82318,-10.92566,1001.216
18.879606724,-0.5463406,-0.4363083,-0.06636012,0.02411313,0.954869,0.1653198,-6.473453,-29.56181,-10.9254,1001.214
18.899790764,-0.3625149,-0.4363083,-0.06636012,0.006485407,1.056393,0.1620025,-6.473453,-29.56181,-10.9254,1001.214
18.919975281,0.06641194,-1.033996,-0.06636012,-0.00318267,1.01854,0.1534822,-6.854632,-29.19145,-10.92701,1001.214
18.940159321,0.4340635,-0.8546896,-0.1273933,0.01302085,1.034883,0.1421037,-6.854632,-29.19145,-10.92701,1001.214
18.960342884,-0.3012396,-0.9144584,-0.1273933,0.01199243,0.9996307,0.177415,-6.854632,-29.19145,-10.92701,1001.199
18.980526924,0.005136684,-1.392608,-0.1273933,0.01389618,1.001457,0.1915593,-6.481748,-29.19117,-11.30193,1001.199
19.000710964,-0.4237901,-0.5558459,-0.06636012,0.01940711,0.9450186,0.1743769,-6.481748,-29.19117,-11.30193,1001.199
19.020895004,-0.5463406,-1.273071,0.1777728,0.002831548,0.9590017,0.2053329,-6.121388,-28.82423,-10.92418,1001.199
19.041078568,-0.1174138,-0.6156146,-0.005326898,0.02832772,0.9649213,0.1840029,-6.121388,-28.82423,-10.92418,1001.202
19.061262608,0.1889624,-0.5558459,-0.310493,0.03859717,0.9932387,0.177736,-6.121388,-28.82423,-10.92418,1001.202
19.081446648,0.4953387,-0.5558459,-0.1884266,0.02116097,0.9606318,0.1172661,-6.121388,-28.82423,-10.92418,1001.202
19.099107742,0.4340635,-1.930527,-0.1884266,0.002280561,1.005561,0.1512709,-6.121388,-28.82423,-10.92418,1001.202
19.119291782,0.3727882,-1.631683,-0.2494598,-0.0004011609,1.027757,0.15658,-6.121388,-28.82423,-10.92418,1001.201
19.139475822,0.3727882,-2.050065,-0.3715262,0.001897525,0.9972711,0.1559733,-6.121388,-28.82423,-10.92418,1001.201
19.159659863,-0.1174138,-2.109833,-0.310493,-0.0004100283,0.9487014,0.1642606,-6.119979,-28.82291,-11.30058,1001.187
19.179843903,0.1889624,-2.28914,-0.1273933,-0.001154393,0.9706541,0.1481522,-6.119979,-28.82291,-11.30058,1001.187
19.200027466,0.06641194,-2.050065,-0.310493,0.004650543,0.9296886,0.1346816,-6.119979,-28.82291,-11.30058,1001.189
19.220211983,-0.05613857,-1.631683,-0.06636012,0.02309497,0.9591414,0.1727046,-6.844928,-29.56076,-10.92688,1001.189
19.240396023,0.06641194,-0.6753834,-0.2494598,0.01185279,1.011357,0.1674289,-6.844928,-29.56076,-10.92688,1001.189
19.260580063,-0.1786891,-0.4363083,-0.005326898,1.567892E-05,0.9933773,0.1549258,-5.749913,-28.82529,-10.9227,1001.189
19.280764103,0.1889624,-0.2570021,0.1167395,0.0117462,0.980351,0.1668154,-5.749913,-28.82529,-10.9227,1001.193
19.300948143,0.1276872,-0.3765396,0.1167395,-0.002675718,0.9760973,0.1832964,-5.749913,-28.82529,-10.9227,1001.193
19.321131706,0.3727882,-0.1972333,-0.1273933,0.02280573,0.9430928,0.1782265,-6.843518,-29.55944,-11.30328,1001.191
19.341315746,-0.05613857,0.1016105,0.05570632,0.01683098,0.9584916,0.1799998,-6.843518,-29.55944,-11.30328,1001.191
19.361499786,0.1889624,-0.07769579,0.238806,0.02120128,0.9958534,0.1812194,-6.110272,-29.19223,-11.30045,1001.187
19.379160881,-0.5463406,0.2809168,-0.06636012,0.01255465,0.913385,0.1781402,-6.110272,-29.19223,-11.30045,1001.187
19.399344921,0.556614,-0.3765396,-0.1273933,0.02531637,1.054778,0.1575636,-6.110272,-29.19223,-11.30045,1001.185
19.419528961,0.1889624,0.221148,-0.005326898,0.03245575,0.9436848,0.1329715,-6.864339,-28.82213,-10.92714,1001.185
19.439713001,0.6791645,0.699298,0.2998392,-0.0004299814,1.030222,0.1522496,-6.864339,-28.82213,-10.92714,1001.185
19.459896565,-0.3012396,0.699298,-0.1273933,-0.00260476,0.9703286,0.1788028,-6.473453,-29.56181,-10.9254,1001.185
19.480080605,0.005136684,0.1613792,-0.005326898,-0.002166135,1.053779,0.1682891,-6.473453,-29.56181,-10.9254,1001.184
19.500264645,0.3115129,0.6395292,0.1777728,0.006459761,1.018505,0.171471,-6.473453,-29.56181,-10.9254,1001.184
19.520449162,-0.3012396,0.4004543,-0.06636012,0.01357499,0.9885847,0.1698952,-6.483157,-29.1925,-10.92553,1001.188
19.540633202,0.4953387,0.9981418,0.1167395,0.01215387,1.06706,0.1208454,-6.483157,-29.1925,-10.92553,1001.188
19.560817242,0.3727882,0.8188355,-0.06636012,0.02017448,1.00135,0.1628394,-6.118335,-28.82137,-11.73971,1001.178
19.581000805,-0.3625149,0.1613792,0.1167395,0.0005437898,0.9101295,0.1464652,-6.118335,-28.82137,-11.73971,1001.178
19.601184845,-0.1174138,0.2809168,0.05570632,0.007332548,0.9858381,0.1932062,-6.483157,-29.1925,-10.92553,1001.178
19.621368885,0.6178893,-0.9742271,-0.6766923,0.006427007,1.06126,0.159666,-6.483157,-29.1925,-10.92553,1001.178
19.641552925,0.005136684,-1.33284,0.05570632,0.03922941,1.021054,0.1588221,-6.483157,-29.1925,-10.92553,1001.18
19.659214020,-0.4850653,-0.7351521,-0.06636012,0.003299859,1.000413,0.1832822,-5.738797,-29.19328,-11.29897,1001.18
19.679398060,-0.1786891,-1.571915,-0.4325595,0.007705363,0.9952217,0.1758743,-5.738797,-29.19328,-11.29897,1001.18
19.699582100,0.1889624,-1.033996,-0.1884266,-0.00131527,0.943887,0.1597873,-6.108628,-29.19068,-11.73958,1001.178
19.719766140,-0.1786891,-1.213302,-0.1884266,-0.003655789,1.017347,0.1753556,-6.108628,-29.19068,-11.73958,1001.178
19.739949703,0.005136684,-0.6753834,-0.1884266,0.01537386,0.9189312,0.2093873,-6.108628,-29.19068,-11.73958,1001.182
19.760133743,-0.2399643,0.221148,0.1167395,0.01779603,0.8782937,0.2066332,-6.128041,-28.45205,-11.73984,1001.182
19.780317784,0.3727882,0.6395292,-0.4935927,0.01847614,1.021247,0.2060553,-6.128041,-28.45205,-11.73984,1001.172
19.800501824,0.4340635,0.2809168,0.1777728,-0.01177263,0.8923845,0.1096381,-6.481748,-29.19117,-11.30193,1001.172
19.820686341,-0.3625149,0.1613792,-0.4935927,0.0120267,0.9570007,0.1765712,-6.481748,-29.19117,-11.30193,1001.176
19.840870381,0.801715,0.04184172,-0.1884266,0.004281873,0.9206477,0.1174727,-6.481748,-29.19117,-11.30193,1001.176
19.861053944,0.801715,0.1613792,-0.06636012,0.007651192,0.8815017,0.1123137,-6.48981,-28.82032,-11.74119,1001.176
19.881237984,0.005136684,0.4004543,0.05570632,-0.0127942,0.9369907,0.10517,-6.48981,-28.82032,-11.74119,1001.176
19.901422024,0.3727882,-0.3765396,-0.310493,0.03139136,1.031183,0.1517353,-5.738797,-29.19328,-11.29897,1001.179
19.921606064,0.6178893,-0.2570021,-0.005326898,0.01350825,0.9560261,0.08166534,-5.738797,-29.19328,-11.29897,1001.179
19.939267158,0.6791645,-0.3765396,-0.1884266,0.006227536,1.078705,0.1103797,-5.738797,-29.19328,-11.29897,1001.179
19.959451199,0.1889624,-0.2570021,0.1777728,0.004048142,1.020369,0.07760021,-6.481748,-29.19117,-11.30193,1001.179
19.979635239,0.3727882,-0.5558459,-0.2494598,-0.007041404,0.939117,0.1436439,-6.481748,-29.19117,-11.30193,1001.175
19.999818802,0.1889624,-0.6753834,-0.005326898,-0.002961263,0.921678,0.1004732,-6.853223,-29.19012,-11.30341,1001.175
20.020002842,0.1276872,-0.7949209,-0.06636012,0.007958998,0.9754679,0.1161193,-6.853223,-29.19012,-11.30341,1001.175
20.040186882,0.6178893,-0.2570021,-0.1273933,0.01166686,0.9883355,0.09447216,-6.853223,-29.19012,-11.30341,1001.175
20.060370922,0.1889624,-0.5558459,-0.2494598,0.008812962,0.9837999,0.1566697,-6.481748,-29.19117,-11.30193,1001.18
20.080554962,0.2502377,-0.5558459,-0.1884266,0.01149474,0.9616086,0.1508741,-6.481748,-29.19117,-11.30193,1001.18
20.100738525,-0.4237901,-0.7949209,-0.310493,0.01264793,0.945229,0.1919081,-6.481748,-29.19117,-11.30193,1001.182
20.120923519,0.1276872,-0.7351521,-0.2494598,0.0150275,1.027764,0.1789405,-6.481748,-29.19117,-11.30193,1001.182
20.141107082,0.3727882,-1.033996,-0.310493,0.02151733,1.01024,0.1479292,-6.481748,-29.19117,-11.30193,1001.18
20.161291122,0.1889624,-1.452377,-0.1884266,0.003426558,0.9905263,0.1543778,-6.862929,-28.82081,-11.30354,1001.18
20.181475163,0.4953387,-1.213302,-0.1273933,0.009748603,0.9862794,0.1523381,-6.862929,-28.82081,-11.30354,1001.18
20.199135780,0.556614,-1.631683,-0.2494598,0.002296084,0.965259,0.1110597,-6.499516,-28.451,-11.74132,1001.18
20.219320297,-0.05613857,-2.050065,-0.6156591,0.01426968,0.9712517,0.1598194,-6.499516,-28.451,-11.74132,1001.18
20.239504337,0.1889624,-2.408677,-0.1273933,-0.005711332,0.9885349,0.1460798,-6.472043,-29.56049,-11.3018,1001.18
20.259688377,-0.6076158,-1.930527,-0.4325595,0.01688004,0.9547906,0.1624093,-6.472043,-29.56049,-11.3018,1001.184
20.279871941,0.06641194,-1.990296,-0.1273933,-0.01190705,0.9818944,0.17126,-6.472043,-29.56049,-11.3018,1001.184
20.300055981,0.1889624,-2.647752,-0.3715262,0.005931265,0.9827834,0.1571404,-6.483157,-29.1925,-10.92553,1001.183
20.320240021,0.005136684,-2.468446,-0.310493,0.03224009,1.000406,0.1783738,-6.483157,-29.1925,-10.92553,1001.183
20.340424061,0.801715,-2.229371,-0.3715262,0.01494343,1.035357,0.146003,-6.501161,-28.45255,-11.30219,1001.183
20.360607624,-0.1174138,-1.930527,-0.4935927,0.007959788,0.9745636,0.1584345,-6.501161,-28.45255,-11.30219,1001.183
20.380791664,-0.05613857,-2.109833,-0.1884266,0.001342235,1.002859,0.1779811,-6.501161,-28.45255,-11.30219,1001.181
20.400975704,-0.2399643,-2.050065,-0.4935927,0.006668826,0.9612378,0.1810422,-6.499516,-28.451,-11.74132,1001.181
20.421160221,0.3115129,-2.408677,-0.4325595,0.01600399,1.026833,0.1764877,-6.499516,-28.451,-11.74132,1001.181
20.441344261,0.3115129,-2.76729,-0.4935927,0.001360867,1.000521,0.2183215,-6.844928,-29.56076,-10.92688,1001.181
20.461528301,-0.3625149,-2.28914,-0.2494598,0.0199502,0.8601004,0.1877796,-6.844928,-29.56076,-10.92688,1001.183
20.479188919,-0.4237901,-2.28914,-0.2494598,0.006959999,0.9755067,0.2572317,-6.844928,-29.56076,-10.92688,1001.183
20.499372959,-0.1786891,-2.886827,-0.5546259,0.03969352,0.981857,0.2032982,-6.862929,-28.82081,-11.30354,1001.183
20.519557476,0.4953387,-5.217809,-0.4935927,-0.001922382,0.7537485,0.2280399,-6.862929,-28.82081,-11.30354,1001.183
20.539741039,2.578697,-5.038503,-1.225991,0.06777205,0.8558801,0.09858053,-6.861285,-28.81926,-11.74267,1001.187
20.559925079,0.06641194,-3.962665,-0.4935927,0.001053512,0.945268,0.26832,-6.861285,-28.81926,-11.74267,1001.187
20.580109120,0.9855408,-4.321278,-0.7377256,-0.0100876,1.109263,0.229249,-6.861285,-28.81926,-11.74267,1001.187
20.600293160,-0.4237901,-5.098271,-0.3715262,0.004539258,1.133261,0.3717858,-7.2247,-29.18907,-11.30489,1001.187
20.620477200,0.556614,-4.440815,-0.9208252,0.03636575,0.9760655,0.2936936,-7.2247,-29.18907,-11.30489,1001.187
20.640660763,1.169366,-4.022434,-0.4935927,0.04891485,1.09417,0.3247212,-6.481748,-29.19117,-11.30193,1001.187
20.660844803,0.4340635,-1.392608,-0.6156591,-0.001277404,0.8986453,0.2756727,-6.481748,-29.19117,-11.30193,1001.185
20.681028843,-1.58802,-0.8546896,0.1777728,-0.003627367,0.8127412,0.3352859,-6.481748,-29.19117,-11.30193,1001.185
20.701213360,0.4953387,-0.6753834,-0.9208252,0.03645129,0.8902712,0.2482027,-6.844928,-29.56076,-10.92688,1001.185
20.721397400,-0.3625149,-1.033996,0.2998392,0.0669249,1.120785,0.3062447,-6.844928,-29.56076,-10.92688,1001.185
20.741581440,0.005136684,-0.3167708,0.1777728,0.07819492,1.10373,0.4304568,-6.504214,-28.45541,-10.48666,1001.189
20.759242058,0.06641194,0.7590668,0.6050053,-0.04714458,0.9814056,0.3143585,-6.504214,-28.45541,-10.48666,1001.189
20.779425621,-1.220368,3.986579,-0.6156591,-0.0147011,1.007408,0.4768589,-6.504214,-28.45541,-10.48666,1001.189
20.799609661,0.4953387,2.552129,0.788105,-0.03777477,1.001494,0.4524464,-6.854632,-29.19145,-10.92701,1001.189
20.819794178,1.414468,2.492361,1.581537,0.05873048,0.8801668,0.3720496,-6.854632,-29.19145,-10.92701,1001.189
20.839978218,-2.813525,3.209586,-0.06636012,0.03084067,0.7083497,0.6528566,-6.861285,-28.81926,-11.74267,1001.187
20.860162258,-0.9139921,4.763573,0.9101714,0.037352,1.086154,0.6758952,-6.861285,-28.81926,-11.74267,1001.187
20.880346298,-1.71057,7.692242,0.7270717,-0.02503154,1.100743,0.626157,-6.872636,-28.4515,-11.30366,1001.187
20.900529862,-0.5463406,6.257792,0.238806,-0.02978162,1.143378,0.1798347,-6.872636,-28.4515,-11.30366,1001.187
20.920713902,-1.58802,3.388892,-0.7987587,0.08877733,0.9460105,0.4711126,-6.872636,-28.4515,-11.30366,1001.187
20.940897942,3.375276,2.970511,-1.225991,0.3240026,1.358798,0.3378268,-6.499516,-28.451,-11.74132,1001.187
20.961081982,0.4953387,3.149817,-1.164958,0.02979816,1.483272,0.04974335,-6.499516,-28.451,-11.74132,1001.189
20.981266022,-8.634675,-2.050065,0.7270717,-0.03343181,0.4960975,-0.1730947,-6.509221,-28.08168,-11.74144,1001.189
21.001450539,-1.526745,-2.528215,-0.2494598,-0.03381353,2.202384,-0.2960052,-6.509221,-28.08168,-11.74144,1001.187
21.019111156,-2.629699,-4.20174,-2.446656,0.03617516,2.060803,0.5998156,-6.509221,-28.08168,-11.74144,1001.187
21.039295197,-5.816012,-6.293646,0.1167395,-0.08300578,-0.2742403,0.0876266,-7.244113,-28.45044,-11.30514,1001.193
21.059478760,1.843394,-6.11434,-0.005326898,-0.3437765,0.834731,-0.2895301,-7.244113,-28.45044,-11.30514,1001.193
21.079662800,-3.855205,-7.608559,-0.9818584,-0.0994586,1.128767,-0.1609629,-6.499516,-28.451,-11.74132,1001.193
21.099847317,-9.798904,-10.29815,-0.7987587,-0.04301655,0.8363839,0.4817876,-6.499516,-28.451,-11.74132,1001.193
21.120031357,5.213533,-9.401621,-0.7987587,-0.01438453,0.4920062,-0.9532021,-6.499516,-28.451,-11.74132,1001.193
21.140215397,-1.58802,-7.967171,-2.324589,-0.02060804,1.572789,0.5727234,-6.88234,-28.08218,-11.30379,1001.193
21.160399437,-2.8748,-7.369484,-0.7987587,0.1461102,0.561582,0.0391164,-6.88234,-28.08218,-11.30379,1001.193
21.180583000,0.3115129,-7.07064,-0.310493,0.1802168,1.015427,-0.1864862,-6.872636,-28.4515,-11.30366,1001.193
21.200767040,-1.159093,-6.712028,-0.4935927,-0.0258048,0.8989144,-0.0322954,-6.872636,-28.4515,-11.30366,1001.193
21.220951080,0.3727882,-9.521159,-1.836323,-0.01786089,1.11505,0.1714711,-6.872636,-28.4515,-11.30366,1001.193
