Time (s),Gyroscope X (deg/s),Gyroscope Y (deg/s),Gyroscope Z (deg/s),Accelerometer X (g),Accelerometer Y (g),Accelerometer Z (g),Magnetometer X (uT),Magnetometer Y (uT),Magnetometer Z (uT),Barometer (hPa)
0.000000000,0.07300324,-0.1370998,-0.003653544,0.01560555,0.9805338,0.1541621,12.02722,-23.69117,-32.37088,1001.09
0.020184040,0.07300324,-0.1370998,-0.1867532,0.004942278,0.9846196,0.1659367,11.70631,-23.32253,-31.93312,1001.09
0.040367603,-0.04954727,-0.4359436,-0.1867532,0.01705172,0.9805118,0.1585389,11.70631,-23.32253,-31.93312,1001.09
0.060551167,0.07300324,-0.2566373,-0.12572,0.01794046,0.9868709,0.1537976,11.33789,-23.31861,-32.75012,1001.09
0.080734730,-0.1108225,-0.01756229,0.1184129,0.01313008,0.9858451,0.1523245,11.33789,-23.31861,-32.75012,1001.094
0.100917816,0.01172798,-0.07733104,-0.12572,0.01024815,0.9848093,0.1547412,11.33789,-23.31861,-32.75012,1001.094
0.121101856,0.07300324,0.161744,-0.12572,0.008389195,0.9789299,0.1585203,11.34618,-23.68925,-32.3736,1001.092
0.141284942,0.01172798,-0.07733104,-0.003653544,0.02139161,0.9805617,0.1599932,11.34618,-23.68925,-32.3736,1001.092
0.161468983,0.07300324,0.04220647,-0.06468677,0.02280331,0.9835085,0.1581031,11.33789,-23.31861,-32.75012,1001.092
0.181652069,-0.04954727,-0.07733104,-0.003653544,0.02379718,0.9811059,0.1575675,11.33789,-23.31861,-32.75012,1001.092
0.201835632,0.01172798,-0.4359436,0.1184129,0.01748728,0.9844178,0.1561826,11.33789,-23.31861,-32.75012,1001.092
0.219496250,0.07300324,-0.1968686,0.05737968,0.01504743,0.986857,0.150882,12.00943,-23.0141,-32.37112,1001.092
0.239680290,0.07300324,0.3410503,0.05737968,0.007819858,0.9862652,0.1508809,12.00943,-23.0141,-32.37112,1001.092
0.259863376,0.01172798,0.2812815,-0.003653544,0.01265413,0.9853873,0.1489101,11.34595,-23.68947,-32.31086,1001.092
0.280047417,-0.04954727,0.161744,0.05737968,0.0155346,0.9863025,0.1586557,11.34595,-23.68947,-32.31086,1001.098
0.300230503,0.01172798,0.04220647,-0.12572,0.02524886,0.9805707,0.1648536,11.34595,-23.68947,-32.31086,1001.098
0.320414066,-0.04954727,-0.2566373,-0.06468677,0.02517332,0.98693,0.158654,11.3298,-23.01085,-32.75023,1001.098
0.340597629,-0.1108225,-0.07733104,0.1794461,0.01937035,0.988413,0.1470138,11.3298,-23.01085,-32.75023,1001.098
0.360781193,-0.1108225,0.04220647,-0.003653544,0.009725885,0.9882795,0.1460521,11.3298,-23.01085,-32.75023,1001.098
0.380964756,-0.1108225,-0.316406,0.1794461,0.02476669,0.9805684,0.1643677,11.3298,-23.01085,-32.75023,1001.098
0.401148319,0.07300324,-0.01756229,-0.12572,0.02622664,0.9797466,0.151698,11.3298,-23.01085,-32.75023,1001.096
0.421331406,0.07300324,0.161744,-0.003653544,0.01068999,0.9882649,0.1489699,11.69822,-23.01477,-31.93322,1001.096
0.441515446,0.1955537,-0.1968686,-0.003653544,-0.01919843,0.9866932,0.16504,11.69822,-23.01477,-31.93322,1001.096
0.461698532,-0.1108225,-0.2566373,-0.12572,0.01606652,0.9826618,0.1357133,11.70631,-23.32253,-31.93312,1001.096
0.481882572,-0.1108225,0.2812815,0.1794461,0.02714995,0.9831465,0.1522506,11.70631,-23.32253,-31.93312,1001.1
0.499543190,0.01172798,-0.01756229,0.05737968,0.01700993,0.9838443,0.1644439,11.70631,-23.32253,-31.93312,1001.1
0.519726753,0.1342785,-0.4359436,-0.12572,0.01511623,0.9809096,0.1643886,11.70795,-23.32098,-32.37225,1001.1
0.539909840,0.1342785,0.2215127,0.1794461,0.01260758,0.989296,0.1455814,11.70795,-23.32098,-32.37225,1001.1
0.560093880,-0.1720978,0.2812815,-0.12572,0.002004106,0.9886301,0.1480167,12.38876,-23.32313,-32.3068,1001.102
0.580276966,0.07300324,-0.1968686,0.1794461,0.009252473,0.9870623,0.170358,12.38876,-23.32313,-32.3068,1001.102
0.600461006,0.5632053,-0.316406,-0.003653544,-0.00858051,1.065906,0.157347,12.38876,-23.32313,-32.3068,1001.102
0.620644092,0.01172798,0.1019752,0.05737968,0.0253515,0.9725733,0.1408525,11.33648,-23.31993,-32.37373,1001.102
0.640827656,-0.1108225,-0.01756229,0.1184129,0.02763986,0.9828191,0.1371592,11.33648,-23.31993,-32.37373,1001.102
0.661011219,0.07300324,0.2215127,-0.06468677,0.03679641,0.9834442,0.1366715,11.71907,-23.68897,-32.74851,1001.102
0.681194782,-0.04954727,0.5801253,0.05737968,0.01715021,0.9721717,0.1690786,11.71907,-23.68897,-32.74851,1001.104
0.701378822,0.1342785,0.04220647,-0.12572,-0.01103714,0.9896051,0.1767638,12.02722,-23.69117,-32.37088,1001.104
0.721561909,-0.233373,-0.4359436,0.1794461,-0.001347555,0.9866812,0.1440904,12.02722,-23.69117,-32.37088,1001.104
0.741744995,-0.04954727,0.3410503,-0.003653544,0.02952194,0.9867321,0.1362607,12.02722,-23.69117,-32.37088,1001.104
0.759405613,-0.04954727,0.161744,-0.06468677,0.03001392,0.9856064,0.1527816,12.01587,-23.32341,-31.93188,1001.104
0.779589653,0.07300324,-0.2566373,0.1184129,0.0180261,0.9794078,0.1735998,12.01587,-23.32341,-31.93188,1001.107
0.799772739,0.07300324,-0.01756229,-0.12572,0.004896316,0.9885765,0.1577431,11.33648,-23.31993,-32.37373,1001.107
0.819956779,-0.04954727,0.2215127,0.1794461,0.01842955,0.9864758,0.1455171,11.33648,-23.31993,-32.37373,1001.107
0.840140343,0.07300324,-0.8543248,-0.12572,0.02228464,0.9863062,0.1683776,11.33648,-23.31993,-32.37373,1001.107
0.860323429,0.01172798,-1.212937,-0.1867532,-0.004650422,0.9800401,0.1736456,10.98418,-24.05773,-32.31221,1001.107
0.880507469,0.1342785,-1.392244,-0.12572,0.003343045,0.9971961,0.1657014,10.98418,-24.05773,-32.31221,1001.107
0.900690556,-0.04954727,-0.6152498,-0.3088197,0.01360337,0.9870528,0.1289916,10.59353,-23.31783,-32.37668,1001.107
0.920874596,0.01172798,-0.316406,-0.06468677,-0.002311489,0.9867104,0.1397131,10.59353,-23.31783,-32.37668,1001.107
0.941057682,0.1342785,0.2812815,-0.1867532,0.006814315,0.9896414,0.1509492,10.59353,-23.31783,-32.37668,1001.107
0.961241245,0.01172798,0.4605878,-0.003653544,0.02957789,0.9816617,0.1590298,10.96336,-23.32043,-31.93607,1001.107
0.981424808,0.07300324,0.2812815,-0.12572,0.06623983,0.9812997,0.1526432,10.96336,-23.32043,-31.93607,1001.11
1.001608372,-0.1720978,-0.1968686,-0.06468677,0.04303336,0.9857368,0.1590907,11.32839,-23.01217,-32.37383,1001.11
1.021792412,0.07300324,-0.6152498,-0.003653544,-0.001808176,0.9845821,0.1596203,11.32839,-23.01217,-32.37383,1001.11
1.039453030,-0.1108225,-0.6750186,-0.2477864,-0.01334623,0.9815236,0.1576303,11.32839,-23.01217,-32.37383,1001.11
1.059636116,-0.2946483,-1.153169,-0.06468677,0.007230754,0.9948751,0.1612705,11.34618,-23.68925,-32.3736,1001.11
1.079819202,-0.1108225,-0.7945561,-0.06468677,0.002455414,0.9909286,0.1611994,11.34618,-23.68925,-32.3736,1001.11
1.100003243,0.07300324,-0.5554811,-0.2477864,0.003056021,0.9813309,0.1527366,11.33483,-23.32148,-31.93459,1001.11
1.120186806,0.01172798,-0.7347873,-0.3088197,0.01554128,0.9858857,0.1518352,11.33483,-23.32148,-31.93459,1001.11
1.140370369,0.1342785,-0.7347873,-0.2477864,0.02284434,0.9801133,0.1585225,11.33483,-23.32148,-31.93459,1001.108
1.160553932,0.3181043,-1.452012,-0.2477864,0.00231707,0.9225002,0.1720099,12.01893,-23.32053,-32.74741,1001.108
1.180737018,-0.2946483,-0.7347873,-0.1867532,0.05118836,0.9890994,0.1742295,12.01893,-23.32053,-32.74741,1001.108
1.200921058,0.01172798,-0.1968686,0.1184129,0.03011408,0.9764344,0.1983391,11.32839,-23.01217,-32.37383,1001.108
1.221104145,0.07300324,0.5801253,0.1794461,0.002131306,0.9778151,0.1638598,11.32839,-23.01217,-32.37383,1001.106
1.241288185,-0.2946483,1.237581,0.1184129,-0.006747964,1.033835,0.1693609,12.02722,-23.69117,-32.37088,1001.106
1.261471271,0.1342785,1.118044,0.1184129,0.007361905,1.023063,0.2017283,12.02722,-23.69117,-32.37088,1001.108
1.281654835,-0.1108225,1.416888,0.3625458,0.02123828,0.9921249,0.2152066,12.02722,-23.69117,-32.37088,1001.108
1.301838875,-0.04954727,2.134113,0.423579,0.02415577,0.9902837,0.2098134,11.71766,-23.6903,-32.37212,1001.106
1.319499492,0.1955537,2.911107,0.423579,0.02428659,0.9797679,0.1954941,11.71766,-23.6903,-32.37212,1001.106
1.339682579,0.256829,3.269719,0.6677119,0.0296426,0.9753764,0.2065908,11.71743,-23.69052,-32.30938,1001.106
1.359866619,0.3793795,3.449025,0.423579,0.01987621,0.9855253,0.1946414,11.71743,-23.69052,-32.30938,1001.106
1.380049705,-0.1108225,2.851338,0.3015125,0.01375632,0.9744887,0.1258232,11.71743,-23.69052,-32.30938,1001.104
1.400232792,0.1955537,1.416888,0.05737968,-0.004681901,0.9832551,0.1425677,11.34618,-23.68925,-32.3736,1001.104
1.420416832,0.1342785,0.4605878,0.05737968,0.02689739,1.003959,0.1541226,11.34618,-23.68925,-32.3736,1001.104
1.440600395,-0.1108225,-0.1370998,-0.2477864,0.03119272,1.008082,0.1357076,11.70631,-23.32253,-31.93312,1001.104
1.460783958,0.256829,-0.5554811,-0.1867532,0.02875675,0.9702258,0.138368,11.70631,-23.32253,-31.93312,1001.104
1.480967522,0.07300324,-0.316406,0.05737968,0.02724661,0.9756238,0.129232,11.70631,-23.32253,-31.93312,1001.104
1.501150608,0.4406548,-0.4957123,-0.06468677,-0.003927717,1.00176,0.0855156,11.31845,-22.64307,-32.31123,1001.103
1.521334648,0.5632053,-0.316406,-0.1867532,-0.002385279,0.9932145,0.1189187,11.31845,-22.64307,-32.31123,1001.103
1.541517734,0.07300324,-0.07733104,-0.3088197,0.01947171,0.9803094,0.1337154,11.32675,-23.01372,-31.9347,1001.105
1.561701774,0.01172798,0.2812815,0.1184129,0.0295364,1.024665,0.1710725,11.32675,-23.01372,-31.9347,1001.105
1.581884861,-0.2946483,1.058275,0.3015125,0.01118396,0.9873033,0.1489502,11.32675,-23.01372,-31.9347,1001.105
1.599545479,-0.233373,0.7594315,0.423579,0.00348468,1.025281,0.1677168,11.70292,-23.01035,-33.18788,1001.105
1.619729519,-0.1720978,1.237581,0.1184129,0.008285882,0.9878414,0.1392333,11.70292,-23.01035,-33.18788,1001.105
1.639913082,-0.1108225,0.9985065,0.1184129,0.03176279,0.9998373,0.1861486,11.70128,-23.0119,-32.74875,1001.105
1.660096168,-0.3559235,1.655963,-0.003653544,0.04014533,0.9851662,0.163463,11.70128,-23.0119,-32.74875,1001.103
1.680280209,-0.233373,1.835269,0.1184129,0.01735886,0.9951316,0.1505558,11.70128,-23.0119,-32.74875,1001.103
1.700463295,-0.1108225,1.835269,0.2404793,0.00857924,1.003261,0.1482966,11.70631,-23.32253,-31.93312,1001.103
1.720647335,0.1955537,1.596194,0.2404793,0.002798006,1.002662,0.1512128,11.70631,-23.32253,-31.93312,1001.103
1.740830421,-0.233373,1.715732,0.05737968,0.01783499,0.9956037,0.1525108,11.32839,-23.01217,-32.37383,1001.101
1.761013985,-0.04954727,1.237581,0.1794461,0.02100598,1.012674,0.1460318,11.32839,-23.01217,-32.37383,1001.101
1.781197548,0.1342785,1.835269,0.1184129,0.01622571,1.009289,0.1381864,11.32816,-23.01239,-32.3111,1001.099
1.801381111,-0.04954727,1.416888,0.1794461,0.005580438,0.9723088,0.1379567,11.32816,-23.01239,-32.3111,1001.099
1.821565151,-0.04954727,1.237581,0.05737968,0.01268458,0.9830574,0.1396188,11.32816,-23.01239,-32.3111,1001.098
1.841748238,-0.04954727,0.400819,0.1794461,0.007121455,1.004261,0.1429661,12.3987,-23.69223,-32.36941,1001.098
1.859408855,0.1955537,0.6996628,0.1184129,0.0192782,0.9963075,0.1325725,12.3987,-23.69223,-32.36941,1001.098
1.879591942,0.1342785,0.5203565,0.1794461,0.01945503,0.9818397,0.1259603,11.69822,-23.01477,-31.93322,1001.096
1.899775982,-0.04954727,0.4605878,0.1794461,0.01640807,0.9943078,0.1344835,11.69822,-23.01477,-31.93322,1001.096
1.919959068,0.1342785,0.5801253,0.1794461,0.02165749,0.9985574,0.1535368,11.69822,-23.01477,-31.93322,1001.102
1.940143108,-0.1720978,0.639894,-0.06468677,0.01898291,0.9807287,0.1395634,11.70772,-23.32121,-32.30951,1001.102
1.960326672,-0.1108225,0.5801253,0.1794461,0.01120349,0.9860096,0.1328672,11.70772,-23.32121,-32.30951,1001.102
1.980509758,0.1955537,0.5801253,0.05737968,0.01015064,0.9932316,0.1359312,11.70631,-23.32253,-31.93312,1001.102
2.000693798,0.1342785,0.5203565,0.1794461,0.01251478,0.9971374,0.1364916,11.70631,-23.32253,-31.93312,1001.098
2.020876884,-0.1108225,0.400819,0.05737968,0.0148534,1.002812,0.1541176,11.70631,-23.32253,-31.93312,1001.098
2.041060925,-0.2946483,0.161744,-0.003653544,0.02000577,0.9758753,0.1418988,11.70795,-23.32098,-32.37225,1001.098
2.061244011,0.01172798,-0.01756229,-0.003653544,0.0124075,1.00572,0.150286,11.70795,-23.32098,-32.37225,1001.098
2.081427574,-0.1720978,0.04220647,-0.003653544,0.01380065,0.9703966,0.1476385,12.38899,-23.32291,-32.36953,1001.098
2.101611614,-0.2946483,-0.07733104,0.05737968,0.01514152,0.9791218,0.149269,12.38899,-23.32291,-32.36953,1001.098
2.121794701,-0.1720978,0.161744,-0.06468677,0.01439458,1.000862,0.1545662,12.38899,-23.32291,-32.36953,1001.102
2.139455318,-0.1108225,0.1019752,-0.12572,0.01576414,0.9674659,0.1529301,12.00778,-23.01564,-31.93199,1001.102
2.159639358,0.01172798,0.5203565,-0.06468677,0.01597551,0.9896808,0.1606683,12.00778,-23.01564,-31.93199,1001.102
2.179822445,-0.04954727,0.6996628,0.1184129,0.01694572,0.9892011,0.1616305,11.3298,-23.01085,-32.75023,1001.102
2.200006485,-0.1720978,0.9985065,0.05737968,0.01814606,0.9699331,0.1520022,11.3298,-23.01085,-32.75023,1001.096
2.220189571,0.07300324,1.357119,0.3015125,0.005185549,0.9649784,0.1436513,11.3298,-23.01085,-32.75023,1001.096
2.240373134,-0.1108225,1.536425,0.2404793,0.01034705,0.976503,0.1618755,10.96336,-23.32043,-31.93607,1001.096
2.260556698,-0.04954727,1.29735,0.1794461,0.02153747,0.9683806,0.1670507,10.96336,-23.32043,-31.93607,1001.096
2.280740261,0.01172798,1.29735,0.1184129,0.01897976,0.980468,0.165834,11.70631,-23.32253,-31.93312,1001.094
2.300924301,0.1342785,1.177813,0.1794461,0.02032074,0.989203,0.1664915,11.70631,-23.32253,-31.93312,1001.094
2.321107387,0.1342785,0.8789691,0.1184129,0.02271805,0.9900336,0.1840215,11.70631,-23.32253,-31.93312,1001.094
2.341290474,0.07300324,1.058275,0.05737968,0.009788695,0.9828069,0.1605413,12.01423,-23.32495,-31.49275,1001.094
2.361474514,0.01172798,0.8192003,0.05737968,0.0172301,0.9652024,0.1879174,12.01423,-23.32495,-31.49275,1001.094
2.381657600,-0.1720978,0.9387378,0.1794461,0.01760949,0.9741597,0.164738,11.70772,-23.32121,-32.30951,1001.094
2.401841640,-0.04954727,1.7755,0.3625458,0.02439475,0.9712572,0.1744023,11.70772,-23.32121,-32.30951,1001.088
2.419502258,-0.1108225,1.655963,0.423579,0.008326823,0.9834693,0.1892652,11.70772,-23.32121,-32.30951,1001.088
2.439685821,-0.04954727,2.25365,0.1794461,0.01537953,0.9590462,0.1707677,12.01084,-23.01277,-32.74752,1001.09
2.459868908,0.07300324,2.313419,0.1794461,0.01764307,0.9711184,0.1783021,12.01084,-23.01277,-32.74752,1001.09
2.480052948,-0.1108225,1.954807,0.3015125,0.02248099,0.9695727,0.1948084,11.69822,-23.01477,-31.93322,1001.088
2.500236034,-0.04954727,2.313419,0.4846122,0.002774928,0.9649861,0.1392757,11.69822,-23.01477,-31.93322,1001.088
2.520420074,0.4406548,2.25365,0.728745,0.007529517,1.009771,0.1742161,11.70936,-23.31966,-32.74864,1001.091
2.540603161,-0.6010246,1.7755,0.6677119,-0.012273,0.9721084,0.180312,11.70936,-23.31966,-32.74864,1001.091
2.560787201,-0.2946483,1.536425,0.3625458,0.01805875,0.9762892,0.1949478,11.70936,-23.31966,-32.74864,1001.091
2.580970287,-0.1720978,1.177813,0.3015125,0.02533903,0.9725121,0.1958355,12.02558,-23.69272,-31.93176,1001.091
2.601153850,0.07300324,1.29735,0.2404793,0.03590939,0.9762579,0.1759441,12.02558,-23.69272,-31.93176,1001.085
2.621337891,0.256829,1.237581,0.2404793,0.03051154,0.9839771,0.1712389,11.71766,-23.6903,-32.37212,1001.085
2.641520977,0.1955537,0.9985065,-0.06468677,0.01974275,0.9581162,0.1245172,11.71766,-23.6903,-32.37212,1001.085
2.661705017,0.1955537,0.8789691,0.1184129,0.00746141,0.9761301,0.1463016,11.71766,-23.6903,-32.37212,1001.085
2.679365635,0.1955537,0.9985065,0.05737968,0.003032195,0.9832392,0.1556939,11.33483,-23.32148,-31.93459,1001.083
2.699548721,0.07300324,0.6996628,-0.003653544,0.01068987,0.9882552,0.1499429,11.33483,-23.32148,-31.93459,1001.083
2.719731808,0.01172798,0.4605878,-0.06468677,0.009129099,0.997224,0.1715325,12.01084,-23.01277,-32.74752,1001.085
2.739915848,-0.2946483,0.5203565,0.05737968,0.01003392,0.9623579,0.1708411,12.01084,-23.01277,-32.74752,1001.085
2.760099411,-0.233373,0.2215127,0.05737968,0.007333483,0.9859154,0.1854223,12.01084,-23.01277,-32.74752,1001.085
2.780282974,-0.2946483,-0.07733104,0.05737968,0.01772327,1.00382,0.2032786,11.67881,-22.27614,-31.93348,1001.085
2.800466537,0.01172798,0.1019752,-0.12572,0.01690329,0.9924805,0.172887,11.67881,-22.27614,-31.93348,1001.08
2.820649624,0.07300324,-0.1370998,0.05737968,0.03025036,0.9654005,0.1874156,12.00919,-23.01432,-32.30839,1001.08
2.840833664,-0.2946483,-0.2566373,-0.06468677,0.03223572,0.9613692,0.1571645,12.00919,-23.01432,-32.30839,1001.083
2.861016750,-0.1108225,-0.316406,-0.12572,0.0360299,0.9658597,0.1986077,12.00919,-23.01432,-32.30839,1001.083
2.881200790,0.07300324,-0.3761748,-0.3088197,0.02061269,0.9648599,0.1786605,12.01752,-23.32186,-32.37101,1001.083
2.901384354,-0.1108225,-0.07733104,-0.2477864,0.01714673,0.9332072,0.140572,12.01752,-23.32186,-32.37101,1001.083
2.921567917,-0.5397493,-0.4359436,-0.1867532,0.000147344,0.9819623,0.1824351,12.00919,-23.01432,-32.30839,1001.083
2.941751480,-0.1108225,-0.6152498,-0.06468677,0.0127956,0.9728442,0.1924544,12.00919,-23.01432,-32.30839,1001.083
2.959412098,0.1955537,0.3410503,-0.12572,0.01072376,1.024885,0.1696447,12.00919,-23.01432,-32.30839,1001.083
2.979595184,0.6244805,0.161744,0.5456454,-0.006696544,1.031299,0.08318475,11.70795,-23.32098,-32.37225,1001.082
2.999779224,-0.5397493,1.357119,0.4846122,0.01010646,0.9983052,0.0640168,11.70795,-23.32098,-32.37225,1001.082
3.019962311,-0.1108225,1.357119,0.6066786,0.0003575868,0.9663777,0.09308101,12.75238,-23.0162,-32.36816,1001.086
3.040146351,-0.3559235,2.134113,0.2404793,0.02562208,0.9899881,0.1441162,12.75238,-23.0162,-32.36816,1001.086
3.060329437,-0.233373,1.7755,0.4846122,0.02051066,0.9738775,0.1486708,12.00943,-23.0141,-32.37112,1001.086
3.080513001,0.01172798,1.476657,0.3015125,0.02492431,0.9683904,0.12228,12.00943,-23.0141,-32.37112,1001.086
3.100696564,-0.04954727,1.118044,0.423579,0.02252856,1.006365,0.1493108,12.00943,-23.0141,-32.37112,1001.086
3.120880127,-0.233373,0.9387378,0.05737968,0.02722847,0.9770334,0.1336392,12.38735,-23.32446,-31.9304,1001.086
3.141064167,-0.1108225,0.8789691,0.2404793,0.03372467,0.9977434,0.1559359,12.38735,-23.32446,-31.9304,1001.09
3.161247253,0.01172798,1.29735,0.1184129,0.02093128,0.9784869,0.1730907,12.00943,-23.0141,-32.37112,1001.09
3.181430340,0.1342785,1.536425,0.4846122,0.003262218,1.004088,0.1546464,12.00943,-23.0141,-32.37112,1001.09
3.201614380,-0.1720978,1.416888,0.4846122,-0.01100617,0.9476718,0.154524,12.00943,-23.0141,-32.37112,1001.09
3.221797943,-0.1720978,1.357119,0.3015125,-0.002385482,0.992228,0.1695042,13.12057,-23.02034,-31.48842,1001.088
3.239458561,-0.1720978,0.8789691,0.2404793,0.009049498,1.004217,0.1502612,13.12057,-23.02034,-31.48842,1001.088
3.259642124,-0.04954727,0.2812815,0.3015125,0.03870892,0.9840553,0.1756077,11.69987,-23.01322,-32.37235,1001.088
3.279825687,-0.1108225,0.161744,0.1184129,0.03228796,0.9569618,0.1619431,11.69987,-23.01322,-32.37235,1001.088
3.300009250,0.1955537,0.161744,0.05737968,0.02063246,0.9635854,0.1606315,11.69987,-23.01322,-32.37235,1001.09
3.320192814,0.3793795,0.1019752,0.05737968,0.02265518,0.9955015,0.1700188,11.69822,-23.01477,-31.93322,1001.09
3.340375900,0.1342785,0.2215127,0.1184129,0.02031358,0.9499344,0.1686338,11.69822,-23.01477,-31.93322,1001.09
3.360559940,-0.1720978,0.400819,0.1794461,-0.01154887,0.9929771,0.1291458,11.32816,-23.01239,-32.3111,1001.09
3.380743027,-0.04954727,0.5203565,0.2404793,0.00800798,1.010437,0.1567115,11.32816,-23.01239,-32.3111,1001.087
3.400927067,-0.233373,0.4605878,0.2404793,0.01103587,0.9596544,0.1518093,11.32816,-23.01239,-32.3111,1001.087
3.421110630,-0.2946483,0.7594315,0.05737968,0.021754,0.9900531,0.1806172,12.38735,-23.32446,-31.9304,1001.085
3.441293716,-0.5397493,0.400819,0.3625458,-0.004910842,1.081433,0.1605685,12.38735,-23.32446,-31.9304,1001.085
3.461477756,-0.478474,1.118044,-0.12572,0.03641622,1.014066,0.1752319,12.00919,-23.01432,-32.30839,1001.087
3.481660843,0.1955537,0.8789691,0.3625458,0.01328341,0.9723428,0.1948767,12.00919,-23.01432,-32.30839,1001.087
3.501844883,-0.3559235,0.6996628,0.2404793,0.01933146,0.991015,0.1777203,12.00919,-23.01432,-32.30839,1001.085
3.519505501,-0.6010246,0.7594315,-0.003653544,0.03371792,0.9565697,0.2524384,11.99808,-22.64633,-31.93212,1001.085
3.539688587,-0.2946483,1.177813,0.1184129,0.006593167,0.9675875,0.1758156,11.99808,-22.64633,-31.93212,1001.09
3.559872627,0.07300324,0.9387378,0.3625458,0.0101047,0.9565747,0.1678071,12.37926,-23.01669,-31.93051,1001.09
3.580055714,0.07300324,0.9387378,0.3625458,0.008760022,0.9881493,0.157729,12.37926,-23.01669,-31.93051,1001.09
3.600239277,0.07300324,1.476657,0.423579,0.0165309,0.944456,0.1291174,12.37926,-23.01669,-31.93051,1001.09
3.620423317,-0.04954727,1.476657,0.3625458,0.003497283,0.9847381,0.1518302,12.38735,-23.32446,-31.9304,1001.089
3.640606403,-0.5397493,1.177813,0.4846122,0.0153068,1.005284,0.1497865,12.38735,-23.32446,-31.9304,1001.089
3.660790443,-0.1720978,0.9985065,0.3015125,0.01593553,0.993163,0.1514921,11.69963,-23.01344,-32.30962,1001.089
3.680973530,-0.233373,0.3410503,0.1184129,0.02109749,0.9650794,0.1572543,11.69963,-23.01344,-32.30962,1001.089
3.701156616,-0.233373,-1.750856,-0.12572,-0.01614132,0.9740932,0.1209934,11.69963,-23.01344,-32.30962,1001.089
3.721340656,-0.1720978,-4.022069,-0.6139858,0.03216662,1.007906,0.1060209,11.69963,-23.01344,-32.30962,1001.089
3.741524219,-0.5397493,-5.8749,-0.9191518,0.03950987,0.9590243,0.1113683,11.69963,-23.01344,-32.30962,1001.089
3.761707783,0.07300324,-5.576056,-0.7970854,0.04472443,0.9662089,0.1275602,12.01587,-23.32341,-31.93188,1001.089
3.779368401,-0.1108225,-4.619757,-0.675019,0.04933502,0.9836834,0.1313054,12.01587,-23.32341,-31.93188,1001.093
3.799551964,-0.478474,-3.006,-0.6139858,0.01734969,0.9963127,0.1291694,11.69822,-23.01477,-31.93322,1001.093
3.819736004,-0.04954727,-2.408313,-0.3698529,-0.007524597,0.9399996,0.1027888,11.69822,-23.01477,-31.93322,1001.093
3.839919090,0.1342785,-1.810625,-0.3088197,-0.02393563,0.9800821,0.1405868,11.69822,-23.01477,-31.93322,1001.093
3.860102177,-0.2946483,-1.691087,-0.3698529,-0.01573423,0.9804934,0.1113877,11.71602,-23.69184,-31.93299,1001.093
3.880286217,-0.1108225,-1.989931,-0.3698529,-0.01547091,0.9982767,0.1263369,11.71602,-23.69184,-31.93299,1001.093
3.900469303,-0.1108225,-1.930163,-0.4308861,0.03615071,0.9970713,0.1296434,12.01893,-23.32053,-32.74741,1001.093
3.920653343,-0.1108225,-1.332475,-0.12572,0.05811881,0.9749298,0.1476632,12.01893,-23.32053,-32.74741,1001.093
3.940836906,0.01172798,-0.4957123,0.05737968,0.04193255,0.9571049,0.1619318,12.01893,-23.32053,-32.74741,1001.094
3.961019993,0.07300324,-0.9140936,-0.1867532,0.01044142,0.968792,0.15783,12.01728,-23.32208,-32.30828,1001.094
3.981204033,0.07300324,-1.033631,-0.12572,-0.02046942,0.9711403,0.2167989,12.01728,-23.32208,-32.30828,1001.098
4.001387119,0.07300324,0.9387378,0.1794461,0.05000011,0.9658419,0.2701151,11.69822,-23.01477,-31.93322,1001.098
4.021571159,0.1955537,3.20995,0.4846122,0.05131431,0.9772111,0.249415,11.69822,-23.01477,-31.93322,1001.1
4.041754246,0.50193,3.150182,0.6677119,0.004466007,0.9831658,0.2140807,11.69822,-23.01477,-31.93322,1001.1
4.059414864,0.4406548,2.492725,0.5456454,-0.01816309,1.019609,0.2187279,12.36956,-22.64738,-31.93064,1001.1
4.079598904,0.07300324,1.596194,0.3625458,-0.01479276,1.020191,0.2138686,12.36956,-22.64738,-31.93064,1001.098
4.099781990,0.07300324,1.237581,0.1794461,0.01944966,0.9813956,0.1707175,12.00919,-23.01432,-32.30839,1001.098
4.119965553,0.1955537,0.9985065,0.6066786,0.01591501,1.034021,0.1844155,12.00919,-23.01432,-32.30839,1001.1
4.140149593,0.50193,1.7755,0.2404793,0.0220866,1.0029,0.156055,12.00919,-23.01432,-32.30839,1001.1
4.160332680,0.6244805,2.193882,0.6677119,0.008177936,1.036985,0.1183097,11.69963,-23.01344,-32.30962,1001.106
4.180516720,0.07300324,3.20995,0.3625458,0.02213766,0.960688,0.06422781,11.69963,-23.01344,-32.30962,1001.106
4.200699806,-0.1720978,3.927176,0.6677119,0.04634966,0.9915494,0.1154081,12.00778,-23.01564,-31.93199,1001.106
4.220883846,0.4406548,4.644401,0.8508115,0.02527749,0.9403833,0.06430793,12.00778,-23.01564,-31.93199,1001.106
4.241066933,0.3181043,4.943244,1.033911,0.02483172,0.9772181,0.06260467,12.38067,-23.01537,-32.30691,1001.106
4.261250496,0.6244805,4.823707,0.9118447,0.01893377,0.985392,0.1090008,12.38067,-23.01537,-32.30691,1001.106
4.281434059,0.747031,5.899544,0.9118447,0.04580712,0.9575757,0.07143027,12.38067,-23.01537,-32.30691,1001.106
4.301617622,-0.04954727,7.333994,1.278044,0.07651928,0.9698287,0.1032558,11.70631,-23.32253,-31.93312,1001.106
4.321801662,0.3181043,8.05122,1.461144,0.02050383,0.9752518,0.1078247,11.70631,-23.32253,-31.93312,1001.104
4.339462280,0.256829,6.975382,1.40011,-0.04325562,0.9820969,0.1528197,11.99949,-22.645,-32.30852,1001.104
4.359645367,1.359784,3.329488,0.7897783,-0.1814766,0.9638051,0.2271084,11.99949,-22.645,-32.30852,1001.104
4.379828453,-0.6010246,-1.392244,-0.06468677,-0.09110279,0.9861611,0.3553905,11.99949,-22.645,-32.30852,1001.104
4.400012493,-0.1720978,-7.070275,-1.224318,0.06656169,0.9516722,0.3067909,12.37926,-23.01669,-31.93051,1001.11
4.420196056,-0.8461256,-9.819638,-1.529484,0.1306819,0.9541881,0.2955551,12.37926,-23.01669,-31.93051,1001.11
4.440379619,0.07300324,-7.7875,-1.468451,0.01708521,0.9764937,0.2217156,12.37926,-23.01669,-31.93051,1001.11
4.460563183,-0.7235751,-4.739294,-0.8581187,0.1368428,0.9657028,0.169748,12.37926,-23.01669,-31.93051,1001.11
4.480746746,0.01172798,-2.587619,-0.3088197,0.1005907,0.9717201,0.1927899,12.37926,-23.01669,-31.93051,1001.11
4.500930309,0.1342785,-1.750856,-0.06468677,0.04637012,0.9487471,0.1807367,12.38735,-23.32446,-31.9304,1001.11
4.521113396,0.3793795,-1.332475,-0.12572,0.01291279,0.9641097,0.1450825,12.38735,-23.32446,-31.9304,1001.112
4.541297436,0.256829,-1.033631,-0.06468677,0.00597492,0.9796054,0.1356676,12.01423,-23.32495,-31.49275,1001.112
4.561480522,0.6244805,-1.0934,0.05737968,-0.004202049,0.9443896,0.1048172,12.01423,-23.32495,-31.49275,1001.112
4.581664562,-0.2946483,-1.930163,-0.4308861,-0.01941618,1.004566,0.17026,12.01423,-23.32495,-31.49275,1001.112
4.601848125,-0.1720978,-2.707156,-0.4919193,0.004764786,0.9593876,0.1693303,12.00919,-23.01432,-32.30839,1001.115
4.619508743,-0.04954727,-2.946231,-0.5529525,0.0287807,1.007974,0.1430078,12.00919,-23.01432,-32.30839,1001.115
4.639692306,-0.2946483,-3.424381,-0.5529525,0.04618661,1.003278,0.2027395,12.00778,-23.01564,-31.93199,1001.115
4.659875870,-0.1108225,-2.946231,-0.675019,0.02728693,0.9721706,0.1354892,12.00778,-23.01564,-31.93199,1001.115
4.680058956,1.237233,-2.0497,-0.4308861,0.02322716,0.9497086,0.09806999,12.00778,-23.01564,-31.93199,1001.113
4.700242996,0.3181043,-1.57155,-0.3698529,0.02602499,0.957366,0.1118419,11.68852,-22.64545,-31.93335,1001.113
4.720426083,-0.2946483,-0.3761748,-0.2477864,0.01988924,0.9063414,0.1176532,11.68852,-22.64545,-31.93335,1001.113
4.740610123,0.6244805,0.2215127,-0.003653544,-0.003111432,0.9731487,0.1379861,11.70631,-23.32253,-31.93312,1001.113
4.760793209,0.1955537,0.1019752,0.1794461,-0.006815779,1.000217,0.1390138,11.70631,-23.32253,-31.93312,1001.112
4.780976772,0.1342785,0.5203565,0.2404793,0.004285439,1.038911,0.1626329,11.70631,-23.32253,-31.93312,1001.112
4.801160812,0.1955537,0.3410503,0.05737968,0.0116275,0.990899,0.1290706,11.70631,-23.32253,-31.93312,1001.112
4.821343899,0.1955537,0.5801253,0.05737968,0.01289517,0.9259161,0.1365412,11.70631,-23.32253,-31.93312,1001.112
4.841527939,-0.233373,0.6996628,0.2404793,0.02006648,0.9702289,0.1739017,11.71437,-23.69339,-31.49386,1001.112
4.861711025,0.1342785,0.8192003,0.1794461,0.02107559,0.9671472,0.1441574,11.71437,-23.69339,-31.49386,1001.112
4.879371643,0.6857558,0.639894,0.3015125,0.02189861,1.018384,0.1578215,11.99949,-22.645,-32.30852,1001.114
4.899555683,0.1955537,0.9985065,-0.003653544,0.02045701,1.05843,0.1240686,11.99949,-22.645,-32.30852,1001.114
4.919738770,-0.04954727,0.639894,-0.2477864,0.03445284,1.017006,0.1689673,11.99949,-22.645,-32.30852,1001.114
4.939922333,-0.04954727,0.8192003,-0.06468677,0.01655606,0.9813334,0.1726669,11.69822,-23.01477,-31.93322,1001.114
4.960105896,0.256829,1.118044,0.05737968,0.01779372,0.959333,0.1454674,11.69822,-23.01477,-31.93322,1001.114
4.980289459,0.07300324,0.5801253,0.05737968,0.003103269,0.9774802,0.1502274,11.69822,-23.01477,-31.93322,1001.114
5.000473499,0.01172798,0.3410503,-0.1867532,0.01934612,0.9902876,0.1533765,11.69822,-23.01477,-31.93322,1001.112
5.020656586,0.4406548,1.058275,-0.06468677,0.02407345,0.998022,0.1622812,11.69822,-23.01477,-31.93322,1001.112
5.040840626,0.1342785,0.161744,-0.06468677,0.01714233,0.9734589,0.1369893,12.02394,-23.69426,-31.49263,1001.11
5.061023712,-0.5397493,0.2812815,-0.3698529,0.0266594,0.983421,0.1726933,12.02394,-23.69426,-31.49263,1001.11
5.081206799,-0.1108225,0.6996628,0.05737968,0.02641564,1.043637,0.1588013,11.70631,-23.32253,-31.93312,1001.109
5.101390839,0.256829,1.118044,0.2404793,0.01099642,0.96318,0.1382547,11.70631,-23.32253,-31.93312,1001.109
5.121574402,0.1342785,0.639894,0.2404793,0.01066275,0.9908605,0.1315042,11.70631,-23.32253,-31.93312,1001.109
5.141757965,0.1955537,1.058275,-0.003653544,0.001607377,0.9821172,0.120153,12.01587,-23.32341,-31.93188,1001.109
5.159418583,0.1955537,0.8192003,0.05737968,0.0190846,1.011329,0.1810422,12.01587,-23.32341,-31.93188,1001.109
5.179602146,0.4406548,0.9387378,0.4846122,-0.00419247,0.9432423,0.1227982,12.01423,-23.32495,-31.49275,1001.109
5.199786186,0.1342785,0.8192003,0.1794461,0.0002110594,0.9775338,0.1405009,12.01423,-23.32495,-31.49275,1001.109
5.219969272,0.3793795,0.1019752,0.1794461,0.01611414,1.058134,0.1474252,12.01423,-23.32495,-31.49275,1001.111
5.240152359,-0.3559235,-0.6152498,-0.2477864,0.01333944,0.9682492,0.1680334,11.33483,-23.32148,-31.93459,1001.111
5.260336399,0.07300324,-0.6750186,-0.4919193,0.04815511,0.9611162,0.1576228,11.33483,-23.32148,-31.93459,1001.109
5.280519485,0.01172798,-0.7347873,-0.4308861,0.03908591,0.9928145,0.1723744,11.34454,-23.69079,-31.93447,1001.109
5.300703525,-0.04954727,-0.9140936,-0.7360522,0.0270361,0.9921561,0.1718925,11.34454,-23.69079,-31.93447,1001.109
5.320887089,0.256829,-1.153169,-0.7970854,0.01995261,1.019852,0.1534742,11.34454,-23.69079,-31.93447,1001.109
5.341070175,0.256829,-0.9738623,-0.4919193,0.01333906,0.9691873,0.1223128,12.01423,-23.32495,-31.49275,1001.107
5.361254215,-0.233373,-1.332475,-0.2477864,-0.002648386,0.9744785,0.1511496,12.01423,-23.32495,-31.49275,1001.107
5.381437301,-0.1108225,-1.332475,-0.3088197,-0.008804685,0.9652793,0.1412448,12.01587,-23.32341,-31.93188,1001.107
5.401621342,-0.1108225,-1.212937,-0.12572,-0.0001740195,0.9690755,0.1622305,12.01587,-23.32341,-31.93188,1001.107
5.421804428,-0.2946483,-1.392244,-0.003653544,-0.001779162,0.9434566,0.1047952,12.00778,-23.01564,-31.93199,1001.107
5.439465046,0.01172798,-0.9738623,-0.003653544,0.01509576,0.9821262,0.1882555,12.00778,-23.01564,-31.93199,1001.107
5.459649086,-0.3559235,-0.8543248,-0.3088197,0.03030917,0.9605666,0.1863467,12.00778,-23.01564,-31.93199,1001.105
5.479832172,0.256829,-0.8543248,-0.12572,0.03459758,0.9650867,0.1766981,11.70631,-23.32253,-31.93312,1001.105
5.500016212,0.6244805,-0.4359436,-0.3698529,0.03819705,0.9864458,0.1780887,11.70631,-23.32253,-31.93312,1001.109
5.520199776,0.256829,-0.1370998,-0.3698529,0.02116106,0.9596696,0.1654191,11.70631,-23.32253,-31.93312,1001.109
5.540382862,-0.1720978,0.400819,-0.3088197,-0.01176455,0.970405,0.157408,11.70631,-23.32253,-31.93312,1001.108
5.560566902,0.3793795,0.1019752,-0.1867532,-0.004267447,0.9883247,0.1694297,11.70631,-23.32253,-31.93312,1001.108
5.580749988,-0.04954727,0.4605878,-0.2477864,0.01169295,1.02529,0.1302378,11.69822,-23.01477,-31.93322,1001.108
5.600934029,-0.1108225,0.4605878,0.1184129,0.0199542,0.9793688,0.1804084,11.69822,-23.01477,-31.93322,1001.108
5.621117115,-0.3559235,1.058275,0.3015125,0.007700557,1.03544,0.1756971,11.33483,-23.32148,-31.93459,1001.108
5.641301155,0.3181043,0.9387378,-0.3088197,0.04104723,0.9519977,0.08933058,11.33483,-23.32148,-31.93459,1001.108
5.661484241,-0.04954727,0.639894,-0.12572,0.03582625,0.9442821,0.1266527,11.33483,-23.32148,-31.93459,1001.109
5.681667805,0.1955537,1.237581,-0.2477864,0.03517845,0.9577353,0.1371382,12.01423,-23.32495,-31.49275,1001.109
5.701851845,0.3793795,1.536425,-0.3088197,0.01707392,1.018115,0.1777733,12.01423,-23.32495,-31.49275,1001.108
5.719512463,0.256829,1.596194,0.2404793,0.0005210367,0.9914181,0.1578058,12.37762,-23.01824,-31.49138,1001.108
5.739695549,0.1342785,1.715732,0.1184129,-0.008000204,1.017892,0.1627216,12.37762,-23.01824,-31.49138,1001.108
5.759879589,-0.1108225,1.29735,-0.003653544,-0.0001639462,0.9689387,0.1271935,12.37762,-23.01824,-31.49138,1001.108
5.780062675,-0.233373,0.5801253,0.05737968,0.0151418,0.9394993,0.1382665,12.00778,-23.01564,-31.93199,1001.102
5.800246715,0.07300324,0.4605878,0.1184129,0.008772939,1.026924,0.15655,12.00778,-23.01564,-31.93199,1001.102
5.820429802,0.3181043,0.639894,-0.003653544,-0.001114086,1.007815,0.1143399,11.32675,-23.01372,-31.9347,1001.106
5.840613365,0.1342785,0.400819,0.05737968,0.01291705,0.9644622,0.1095686,11.32675,-23.01372,-31.9347,1001.106
5.860796928,0.1342785,-0.01756229,-0.12572,0.01669973,1.009587,0.1576551,11.32675,-23.01372,-31.9347,1001.106
5.880980492,0.3793795,0.04220647,-0.12572,0.004250592,1.003171,0.1020755,12.00614,-23.01719,-31.49286,1001.106
5.901164532,-0.04954727,-0.07733104,0.05737968,-0.005146698,0.9817804,0.143999,12.00614,-23.01719,-31.49286,1001.104
5.921347618,-0.1720978,-0.01756229,-0.06468677,-0.007552199,1.020888,0.1545082,12.01587,-23.32341,-31.93188,1001.104
5.941531658,-0.2946483,0.04220647,0.3625458,0.000476862,0.9162313,0.1173909,12.01587,-23.32341,-31.93188,1001.104
5.961714745,0.01172798,0.1019752,0.2404793,-0.002082252,1.006524,0.194116,10.96336,-23.32043,-31.93607,1001.104
5.979375362,-0.04954727,-0.4359436,0.3015125,0.02414075,0.9532743,0.1307405,10.96336,-23.32043,-31.93607,1001.098
5.999558926,0.07300324,0.04220647,0.1794461,0.03887811,1.010541,0.1435304,10.96336,-23.32043,-31.93607,1001.098
6.019742489,-0.3559235,-0.7347873,-0.12572,0.02000481,0.9767651,0.1010431,11.33483,-23.32148,-31.93459,1001.098
6.039926052,-0.4171988,-0.7945561,-0.1867532,0.04076162,0.973956,0.1710256,11.33483,-23.32148,-31.93459,1001.098
6.060109615,0.1342785,-1.153169,-0.3698529,0.02015478,0.9639548,0.1226858,11.31704,-22.6444,-31.93483,1001.098
6.080293179,0.07300324,-1.153169,-0.3698529,0.01137847,0.9713874,0.1418227,11.31704,-22.6444,-31.93483,1001.098
6.100477219,0.256829,-1.750856,-0.2477864,-0.003127696,0.9747128,0.1268256,11.31704,-22.6444,-31.93483,1001.098
6.120660305,0.256829,-2.109469,-0.4308861,0.00542005,1.024874,0.16284,11.69822,-23.01477,-31.93322,1001.098
6.140843391,0.07300324,-2.229006,-0.4308861,0.01852238,0.9796063,0.1054808,11.69822,-23.01477,-31.93322,1001.098
6.161027431,-0.04954727,-2.109469,-0.3698529,0.03381196,0.9904154,0.1621164,11.31704,-22.6444,-31.93483,1001.098
6.181210995,0.01172798,-2.109469,-0.4308861,0.004732753,0.9635262,0.09399132,11.31704,-22.6444,-31.93483,1001.094
6.201394558,0.07300324,-2.348544,-0.4308861,0.005537222,0.9764925,0.106898,11.31704,-22.6444,-31.93483,1001.094
6.221578121,0.07300324,-2.348544,-0.3088197,0.02576514,0.9775752,0.1745253,11.3251,-23.01526,-31.49557,1001.094
6.241762161,-0.04954727,-2.468081,-0.3698529,0.005944347,0.9819257,0.1459319,11.3251,-23.01526,-31.49557,1001.094
6.259422302,-0.04954727,-2.587619,-0.3698529,0.005885771,0.9867789,0.1450548,11.69963,-23.01344,-32.30962,1001.094
6.279605865,-0.1720978,-2.766925,-0.3698529,0.009589897,0.9993376,0.1545431,11.69963,-23.01344,-32.30962,1001.094
6.299788952,-0.233373,-2.587619,-0.3088197,0.01368762,0.9794737,0.1604696,11.69963,-23.01344,-32.30962,1001.094
6.319972992,-0.1108225,-2.826694,-0.2477864,0.007386568,0.9825475,0.134264,11.99644,-22.64787,-31.49299,1001.097
6.340156078,0.01172798,-2.468081,-0.2477864,0.01522851,0.9717696,0.1578819,11.99644,-22.64787,-31.49299,1001.097
6.360340118,-0.233373,-2.647388,-0.3088197,0.005678641,0.9639444,0.1509289,11.33319,-23.32302,-31.49546,1001.097
6.380523681,-0.233373,-2.647388,-0.3088197,0.0220903,0.96259,0.1654756,11.33319,-23.32302,-31.49546,1001.097
6.400707245,-0.2946483,-2.766925,-0.3088197,0.0252467,0.9803921,0.1828538,11.33319,-23.32302,-31.49546,1001.093
6.420890808,-0.04954727,-2.587619,-0.3698529,0.01818157,0.9670511,0.1495122,12.02558,-23.69272,-31.93176,1001.093
6.441073894,-0.2946483,-2.52785,-0.4308861,0.01889271,0.9878153,0.1577075,12.02558,-23.69272,-31.93176,1001.091
6.461257934,-0.1720978,-2.587619,-0.4308861,0.0185972,1.011864,0.1752145,11.72408,-24.0627,-31.49373,1001.091
6.481441021,0.01172798,-2.348544,-0.4919193,0.01676499,1.004317,0.1517116,11.72408,-24.0627,-31.49373,1001.091
6.501625061,0.01172798,-2.288775,-0.12572,0.007030254,0.971619,0.1608105,11.72408,-24.0627,-31.49373,1001.091
6.521808147,-0.2946483,-2.169238,-0.3698529,0.02188387,0.9398135,0.1655117,11.69658,-23.01631,-31.49409,1001.093
6.539468765,0.01172798,-2.229006,-0.1867532,-0.009001381,0.9819838,0.117733,11.69658,-23.01631,-31.49409,1001.093
6.559652805,-0.1720978,-2.52785,-0.4308861,0.007990534,0.9722577,0.1467107,11.33319,-23.32302,-31.49546,1001.093
6.579836368,-0.1720978,-2.468081,-0.1867532,0.01247441,0.959972,0.1707903,11.33319,-23.32302,-31.49546,1001.093
6.600019455,-0.233373,-1.989931,-0.4308861,0.02419166,0.9884025,0.1552784,11.32675,-23.01372,-31.9347,1001.089
6.620203495,0.01172798,-2.229006,-0.3088197,0.02057824,0.9678288,0.1723937,11.32675,-23.01372,-31.9347,1001.089
6.640386581,0.1955537,-1.810625,-0.3088197,0.01755853,0.9786733,0.1492566,11.32675,-23.01372,-31.9347,1001.093
6.660570621,0.3181043,-1.810625,-0.3088197,-0.01956314,1.016655,0.1724458,11.34454,-23.69079,-31.93447,1001.093
6.680753708,-0.04954727,-1.392244,-0.3698529,0.0315861,0.9350262,0.1741612,11.34454,-23.69079,-31.93447,1001.093
6.700937748,0.3793795,-0.9738623,-0.2477864,0.03385744,0.9467733,0.1656318,11.71437,-23.69339,-31.49386,1001.093
6.721120834,0.01172798,-0.8543248,-0.06468677,0.008009925,0.9699824,0.1807267,11.71437,-23.69339,-31.49386,1001.091
6.741304874,-0.233373,-1.212937,-0.1867532,0.01236266,0.9691553,0.1729186,11.71437,-23.69339,-31.49386,1001.091
6.761488438,-0.04954727,-1.631319,-0.003653544,0.02015266,1.002456,0.1978955,11.33155,-23.32457,-31.05633,1001.095
6.781671524,0.50193,-1.750856,-0.4308861,0.01289557,1.004271,0.1994019,11.33155,-23.32457,-31.05633,1001.095
6.801855564,0.6244805,-1.930163,-0.675019,0.0296565,0.9745864,0.1885715,11.70631,-23.32253,-31.93312,1001.093
6.819516182,1.053407,-2.169238,-0.6139858,0.01358644,0.9875919,0.1723085,11.70631,-23.32253,-31.93312,1001.093
6.839699268,0.3181043,-2.826694,-0.3698529,-0.006031964,0.974739,0.1686768,11.70631,-23.32253,-31.93312,1001.093
6.859883308,-0.233373,-4.022069,-0.5529525,0.009127873,0.9971226,0.1817488,11.69822,-23.01477,-31.93322,1001.093
6.880066395,-0.1720978,-4.500219,-0.6139858,0.02189028,0.9790193,0.1696937,11.69822,-23.01477,-31.93322,1001.095
6.900250435,-0.2946483,-4.739294,-0.675019,0.0314004,0.9903459,0.1655246,11.71437,-23.69339,-31.49386,1001.095
6.920433521,0.01172798,-5.456519,-0.8581187,0.01360305,0.9860567,0.1805501,11.71437,-23.69339,-31.49386,1001.093
6.940617084,-0.1108225,-5.695594,-0.9191518,0.02197686,0.9716333,0.1817121,11.71437,-23.69339,-31.49386,1001.093
6.960801125,-0.4171988,-5.516288,-0.4919193,0.01665803,0.9723108,0.2031431,10.95198,-23.01575,-31.05792,1001.097
6.980984211,-0.7848503,-5.635825,-0.3698529,0.003282591,0.9622481,0.171822,10.95198,-23.01575,-31.05792,1001.097
7.001168251,-0.7235751,-5.695594,-0.3698529,0.006754734,0.9547658,0.1497725,10.59024,-23.32092,-31.49842,1001.097
7.021351337,-0.2946483,-4.978369,-0.3088197,0.002371783,0.9975889,0.173496,10.59024,-23.32092,-31.49842,1001.097
7.041535378,-0.1720978,-4.559988,-0.5529525,0.03173877,0.9620846,0.1819953,10.59024,-23.32092,-31.49842,1001.097
7.061718464,0.1955537,-4.081838,-0.4308861,0.0287841,0.9676399,0.1548608,10.97142,-23.69129,-31.49681,1001.097
7.079379082,0.07300324,-3.663456,-0.2477864,0.01258694,0.9904981,0.1709077,10.97142,-23.69129,-31.49681,1001.096
7.099562645,0.256829,-3.006,-0.5529525,0.01846929,0.9829743,0.1566392,10.97142,-23.69129,-31.49681,1001.096
7.119746208,-0.1720978,-3.125538,-0.4308861,0.007618549,1.002588,0.1658019,10.97142,-23.69129,-31.49681,1001.097
7.139929771,0.01172798,-2.886462,-0.4308861,0.01089867,1.010258,0.1790867,10.97142,-23.69129,-31.49681,1001.097
7.160113811,-0.1108225,-2.348544,-0.2477864,0.01337101,0.9660109,0.1494987,10.23817,-24.0585,-31.49964,1001.1
7.180296898,0.256829,-1.750856,-0.5529525,0.0257461,0.9798795,0.1375904,10.23817,-24.0585,-31.49964,1001.1
7.200480938,0.3181043,-1.511781,-0.12572,-0.005302717,0.9950607,0.1238254,10.60965,-24.05955,-31.49817,1001.1
7.220664024,0.01172798,-1.272706,0.05737968,-0.01240105,0.9838229,0.1226402,10.60965,-24.05955,-31.49817,1001.1
7.240848064,-0.04954727,-1.631319,0.05737968,0.01225494,0.9786718,0.141479,10.23982,-24.05695,-31.93877,1001.098
7.261031151,0.07300324,-1.153169,-0.2477864,0.033838,0.9886904,0.1406724,10.23982,-24.05695,-31.93877,1001.098
7.281214714,0.6244805,-0.8543248,-0.2477864,0.03170517,1.00574,0.1283617,10.23982,-24.05695,-31.93877,1001.096
7.301398277,0.3181043,-0.6152498,-0.2477864,0.02387669,0.9750749,0.1306858,10.23653,-24.06004,-31.06051,1001.096
7.321581840,-0.1108225,-0.4359436,-0.003653544,0.009511656,0.9658282,0.162152,10.23653,-24.06004,-31.06051,1001.094
7.341765880,-0.2946483,-0.4359436,0.3015125,-0.003460523,1.001494,0.1619038,10.97948,-24.06215,-31.05756,1001.094
7.359426498,-0.233373,-0.01756229,0.3015125,-0.02021174,0.9913663,0.1320461,10.97948,-24.06215,-31.05756,1001.094
7.379609585,-0.4171988,0.161744,0.2404793,0.009532177,1.042938,0.2040648,10.97948,-24.06215,-31.05756,1001.094
7.399793625,-0.233373,0.1019752,0.423579,0.009617462,0.9977381,0.1204504,10.61129,-24.05801,-31.93729,1001.094
7.419976711,-0.3559235,-0.07733104,0.4846122,0.01925346,0.9575249,0.1833832,10.61129,-24.05801,-31.93729,1001.094
7.440159798,-0.2946483,0.1019752,0.1184129,0.02918384,0.9753709,0.1087875,10.97142,-23.69129,-31.49681,1001.094
7.460343838,0.1342785,-0.4359436,0.05737968,0.05235131,1.013173,0.1425895,10.97142,-23.69129,-31.49681,1001.098
7.480527401,0.256829,0.161744,0.05737968,0.03237469,0.9505575,0.1238625,10.97142,-23.69129,-31.49681,1001.098
7.500710964,0.256829,-0.1968686,0.05737968,-0.006658415,0.9870482,0.1479981,10.99083,-24.42992,-31.49656,1001.096
7.520894527,0.4406548,-0.1370998,0.1184129,0.002690098,0.972517,0.1126626,10.99083,-24.42992,-31.49656,1001.096
7.541078567,-0.04954727,-0.8543248,-0.2477864,0.0427473,0.9689819,0.1869816,10.59995,-23.69024,-31.49829,1001.098
7.561261654,-0.4171988,-0.7347873,-0.4919193,0.02262357,0.9590603,0.1313439,10.59995,-23.69024,-31.49829,1001.098
7.581445694,-0.1108225,-0.4957123,-0.12572,0.0208687,0.9839788,0.1566555,10.59995,-23.69024,-31.49829,1001.1
7.601628780,0.1342785,-0.01756229,-0.12572,-0.0002082641,0.8927702,0.1368776,10.97142,-23.69129,-31.49681,1001.1
7.621812344,-0.1108225,-0.316406,-0.12572,0.001178294,0.9768079,0.1662742,10.97142,-23.69129,-31.49681,1001.1
7.639472485,0.747031,-0.4957123,0.1184129,0.01205832,0.9547672,0.1575501,10.98277,-24.05906,-31.93582,1001.1
7.659656525,-0.4171988,-0.7945561,-0.1867532,0.001784344,1.005367,0.2189034,10.98277,-24.05906,-31.93582,1001.1
7.679840088,-0.04954727,-1.691087,0.1184129,0.00619389,1.040155,0.1864975,10.98277,-24.05906,-31.93582,1001.1
7.700023651,0.3181043,-2.408313,-0.3088197,0.02499758,0.9618428,0.1474528,10.60159,-23.68869,-31.93742,1001.102
7.720207214,0.1342785,-3.065769,-0.3088197,0.02844295,0.9550557,0.2018111,10.60159,-23.68869,-31.93742,1001.102
7.740391254,-0.1720978,-3.424381,-0.4919193,0.04309324,0.9403762,0.1893344,10.5983,-23.69178,-31.05916,1001.102
7.760574341,-0.6622998,-4.022069,-0.675019,0.02671205,0.9790474,0.1740665,10.5983,-23.69178,-31.05916,1001.102
7.780757427,-0.4171988,-3.723225,-0.5529525,0.009603709,0.9975708,0.1861363,10.23512,-24.06137,-30.68411,1001.104
7.800941467,-0.1720978,-4.261144,-0.7970854,0.0346371,0.9228911,0.1320701,10.23512,-24.06137,-30.68411,1001.104
7.821125030,-0.478474,-4.201375,-0.9191518,0.0293659,0.91878,0.1967126,10.23512,-24.06137,-30.68411,1001.103
7.841308594,-0.04954727,-3.48415,-0.7360522,0.01903258,0.9761088,0.1657476,10.60965,-24.05955,-31.49817,1001.103
7.861492157,-0.04954727,-3.603688,-0.675019,0.0130387,0.9531885,0.1716284,10.60965,-24.05955,-31.49817,1001.103
7.881675720,-0.5397493,-2.946231,-0.9191518,-0.001345639,0.9471938,0.1194661,10.22847,-23.68919,-31.49977,1001.103
7.901859283,0.1342785,-2.647388,-0.5529525,0.01217206,1.065655,0.1159518,10.22847,-23.68919,-31.49977,1001.103
7.919519901,-0.1720978,-1.452012,-0.3088197,0.01841609,0.9882717,0.1110049,10.22847,-23.68919,-31.49977,1001.103
7.939703941,0.01172798,-1.452012,0.1794461,-0.02902043,0.9226481,0.1102624,10.5983,-23.69178,-31.05916,1001.103
7.959887028,-0.1720978,-0.7347873,-0.1867532,-0.02938273,1.032102,0.1148621,10.5983,-23.69178,-31.05916,1001.103
7.980070114,0.1955537,-1.452012,-0.003653544,-0.01079636,0.9707283,0.1262714,10.60965,-24.05955,-31.49817,1001.103
8.000254154,-0.478474,-1.153169,-0.12572,0.01741481,0.9900611,0.1733249,10.60965,-24.05955,-31.49817,1001.103
8.020437241,0.1955537,-2.169238,-0.3088197,0.04103462,0.9925406,0.1052172,10.60965,-24.05955,-31.49817,1001.103
8.040621281,-0.1108225,-1.511781,-0.2477864,0.05288451,1.008666,0.1580703,10.22847,-23.68919,-31.49977,1001.103
8.060804844,-0.5397493,-1.511781,0.1184129,0.005206749,0.9628528,0.162586,10.22847,-23.68919,-31.49977,1001.104
8.080988407,-0.478474,-1.511781,-0.3088197,0.006395818,0.9445921,0.149085,10.23011,-23.68764,-31.9389,1001.104
8.101171970,-0.2946483,-2.647388,-0.675019,-0.002386876,0.9137908,0.1149138,10.23011,-23.68764,-31.9389,1001.104
8.121356010,-0.3559235,-2.886462,-0.3088197,0.002716585,0.9698586,0.1364527,10.23011,-23.68764,-31.9389,1001.104
8.141539097,0.1342785,-3.364613,-0.3698529,-0.002463635,0.9596954,0.1275005,9.856993,-23.68813,-31.50125,1001.104
8.161722183,-0.1720978,-3.304844,-0.6139858,7.287086E-05,0.9497336,0.1097826,9.856993,-23.68813,-31.50125,1001.104
8.179382801,0.07300324,-2.826694,-0.4308861,0.02077419,1.032294,0.1216045,9.845643,-23.32036,-31.06225,1001.104
8.199566841,-0.04954727,-2.468081,-0.3698529,0.04504123,0.9806582,0.0879456,9.845643,-23.32036,-31.06225,1001.104
8.219749927,-0.04954727,-1.750856,-0.3088197,0.03039138,0.9944043,0.1456564,9.845643,-23.32036,-31.06225,1001.108
8.239933967,0.07300324,-1.392244,-0.003653544,0.01833967,0.9945585,0.1121027,9.495223,-24.0564,-31.5026,1001.108
8.260117531,0.07300324,-0.7945561,-0.3088197,0.0004686199,0.9958112,0.1544867,9.495223,-24.0564,-31.5026,1001.108
8.280301094,0.01172798,-1.033631,-0.3088197,0.006106147,0.9691234,0.1179428,9.856993,-23.68813,-31.50125,1001.108
8.300484657,0.1955537,-0.7945561,-0.2477864,0.01768401,0.9686853,0.1305684,9.856993,-23.68813,-31.50125,1001.108
8.320668697,0.1342785,-0.1370998,-0.1867532,0.01105259,0.9987428,0.1190084,9.856993,-23.68813,-31.50125,1001.108
8.340851784,0.01172798,-0.01756229,0.1184129,0.02729742,1.009775,0.2033824,9.860281,-23.68504,-32.37951,1001.108
8.361034870,-0.1720978,0.400819,-0.06468677,0.0167381,1.006942,0.131327,9.860281,-23.68504,-32.37951,1001.108
8.381218910,0.01172798,0.04220647,-0.003653544,0.01759705,0.9750704,0.170595,9.868343,-24.0559,-31.94025,1001.108
8.401402473,0.07300324,0.400819,0.1184129,0.01747119,0.9859964,0.1435626,9.868343,-24.0559,-31.94025,1001.108
8.421586037,0.07300324,0.400819,-0.003653544,0.01851248,0.9797577,0.1390583,9.504929,-24.42571,-31.50247,1001.108
8.441769600,0.3793795,0.3410503,0.05737968,0.00831041,0.9859908,0.1304381,9.504929,-24.42571,-31.50247,1001.108
8.459430218,0.07300324,0.2215127,-0.003653544,0.01129212,0.9787927,0.1278583,9.504929,-24.42571,-31.50247,1001.108
8.479613781,0.256829,0.2812815,0.05737968,0.01385865,1.005142,0.1619505,10.22847,-23.68919,-31.49977,1001.108
8.499797344,0.1955537,0.2215127,-0.06468677,0.0163911,0.995814,0.1291609,10.22847,-23.68919,-31.49977,1001.108
8.519981384,-0.233373,0.2812815,0.1794461,0.01417717,0.9791172,0.1482972,10.23653,-24.06004,-31.06051,1001.108
8.540164471,-0.233373,0.4605878,0.1184129,0.01730133,1.000072,0.1409219,10.23653,-24.06004,-31.06051,1001.108
8.560347557,0.1955537,0.2812815,-0.003653544,0.01451965,0.9908406,0.1392835,10.23653,-24.06004,-31.06051,1001.107
8.580531597,0.01172798,0.5801253,0.1184129,0.01915934,0.9662271,0.1363567,9.856993,-23.68813,-31.50125,1001.107
8.600715160,-0.233373,0.5801253,0.05737968,0.01061527,0.9946918,0.1359594,9.856993,-23.68813,-31.50125,1001.107
8.620898724,-0.1108225,0.2812815,0.1184129,0.009843328,0.9785974,0.1453737,9.485518,-23.68708,-31.50273,1001.107
8.641082287,-0.1108225,0.1019752,0.05737968,0.01502831,0.9881845,0.1635596,9.485518,-23.68708,-31.50273,1001.105
8.661265850,-0.1108225,0.1019752,0.05737968,0.01838213,0.9903119,0.1494857,9.485518,-23.68708,-31.50273,1001.105
8.681449413,0.01172798,0.04220647,0.05737968,0.02468458,0.9873541,0.1640155,10.21876,-23.31987,-31.4999,1001.105
8.701632500,-0.233373,0.4605878,-0.06468677,0.01603467,0.9848759,0.1566804,10.21876,-23.31987,-31.4999,1001.105
8.721816540,-0.1108225,0.5203565,-0.003653544,0.01110161,0.9940698,0.150544,9.848931,-23.31728,-31.94051,1001.103
8.739477158,-0.1720978,0.2812815,0.1184129,0.01299996,0.9964187,0.160806,9.848931,-23.31728,-31.94051,1001.103
8.759660244,-0.04954727,0.3410503,-0.12572,0.02038031,0.9844318,0.1590981,9.848931,-23.31728,-31.94051,1001.103
8.779844284,-0.1720978,0.161744,0.1794461,0.01540042,0.9975101,0.1520655,10.20097,-22.64279,-31.50014,1001.103
8.800027847,-0.04954727,0.4605878,0.1184129,0.01589985,0.9960305,0.1554416,10.20097,-22.64279,-31.50014,1001.109
8.820211410,-0.04954727,0.2215127,-0.06468677,0.01307784,0.9902525,0.147546,10.20903,-23.01365,-31.06088,1001.109
8.840394974,0.1342785,0.639894,0.05737968,0.01622301,0.9694201,0.1519949,10.20903,-23.01365,-31.06088,1001.111
8.860578537,-0.04954727,0.8192003,-0.003653544,0.02089212,0.9820365,0.1571036,10.20903,-23.01365,-31.06088,1001.111
8.880762100,0.07300324,0.7594315,0.1184129,0.01752366,0.9816083,0.1463952,10.60965,-24.05955,-31.49817,1001.112
8.900945187,-0.04954727,0.8192003,0.1184129,0.02310319,0.9984968,0.1618055,10.60965,-24.05955,-31.49817,1001.112
8.921129227,0.01172798,0.9387378,0.1184129,0.007971,0.9735515,0.1627937,9.848931,-23.31728,-31.94051,1001.112
8.941312313,-0.04954727,0.9985065,0.1794461,0.02374342,0.9853879,0.1654378,9.848931,-23.31728,-31.94051,1001.112
8.961496353,0.1955537,0.9985065,0.3015125,0.01547055,0.9520271,0.1458128,10.60159,-23.68869,-31.93742,1001.111
8.981679916,0.01172798,1.357119,0.1184129,0.01278267,0.9746834,0.1535639,10.60159,-23.68869,-31.93742,1001.111
8.999340534,-0.04954727,1.177813,0.1794461,0.01140793,0.9689752,0.1408017,10.60159,-23.68869,-31.93742,1001.112
9.019524097,0.01172798,1.177813,0.2404793,0.01397121,0.9563793,0.1444413,9.845643,-23.32036,-31.06225,1001.112
9.039707661,0.01172798,1.715732,0.1184129,0.01869251,1.00423,0.1633852,9.845643,-23.32036,-31.06225,1001.112
9.059891224,0.07300324,1.596194,0.2404793,0.0146107,0.9828544,0.1629681,10.21068,-23.01211,-31.50001,1001.112
9.080074787,-0.04954727,1.655963,0.3015125,0.01734653,0.9564052,0.1468698,10.21068,-23.01211,-31.50001,1001.116
9.100257874,-0.04954727,1.476657,0.05737968,0.009999115,0.9652978,0.1674933,10.21068,-23.01211,-31.50001,1001.116
9.120441914,-0.1720978,1.29735,0.1794461,0.01956194,0.9722557,0.1642108,10.60801,-24.06109,-31.05903,1001.115
9.140625000,-0.2946483,1.237581,0.1794461,0.02152473,0.9692672,0.1753403,10.60801,-24.06109,-31.05903,1001.115
9.160809040,-0.04954727,1.237581,0.1794461,0.02172018,0.9930751,0.168999,9.472758,-23.32064,-30.68733,1001.115
9.180992603,0.1342785,1.237581,0.05737968,0.01242277,1.004074,0.1697169,9.472758,-23.32064,-30.68733,1001.115
9.201176166,-0.04954727,1.237581,0.2404793,0.01225243,0.9784642,0.1623981,9.472758,-23.32064,-30.68733,1001.115
9.221359730,-0.233373,1.536425,0.1794461,0.01986298,0.9873404,0.1581833,10.60159,-23.68869,-31.93742,1001.115
9.241543293,-0.04954727,1.596194,0.1184129,0.01390589,0.9616444,0.1508713,10.60159,-23.68869,-31.93742,1001.115
9.261726856,0.01172798,1.536425,0.1184129,0.01819901,1.00523,0.159513,10.98113,-24.0606,-31.49669,1001.115
9.279387474,0.01172798,1.835269,0.1794461,0.01600102,0.9482657,0.1350326,10.98113,-24.0606,-31.49669,1001.115
9.299571514,0.1955537,1.715732,0.2404793,0.01428218,0.9703458,0.1534759,10.98113,-24.0606,-31.49669,1001.115
9.319754600,0.07300324,2.014575,0.2404793,0.01259292,0.9900233,0.1699252,9.847287,-23.31882,-31.50138,1001.118
9.339937687,-0.233373,1.954807,-0.06468677,0.01130952,0.9763532,0.178415,9.847287,-23.31882,-31.50138,1001.118
9.360121727,0.1342785,2.193882,0.3625458,0.01248293,1.038998,0.1660287,10.58215,-23.01316,-31.49853,1001.118
9.380305290,0.07300324,2.313419,0.3625458,0.00684954,1.026382,0.1594617,10.58215,-23.01316,-31.49853,1001.118
9.400488853,0.3793795,2.7318,0.5456454,-0.004206709,0.9836501,0.1523065,10.58215,-23.01316,-31.49853,1001.118
9.420672417,-0.233373,3.090413,0.3625458,0.01927288,0.9562215,0.1682732,10.59024,-23.32092,-31.49842,1001.118
9.440855980,-0.04954727,2.851338,0.3625458,0.02571184,0.9818957,0.1785036,10.59024,-23.32092,-31.49842,1001.12
9.461039543,-0.233373,3.150182,0.2404793,0.01738324,0.9922994,0.1918596,10.22847,-23.68919,-31.49977,1001.12
9.481223583,0.07300324,2.970876,0.4846122,0.01447617,0.994033,0.1592968,10.22847,-23.68919,-31.49977,1001.118
9.501406670,-0.04954727,3.20995,0.423579,0.03005719,0.9417809,0.1747838,10.60159,-23.68869,-31.93742,1001.118
9.521589756,0.1955537,3.20995,0.5456454,0.02311602,0.9579732,0.1439729,10.60159,-23.68869,-31.93742,1001.117
9.541773796,0.1955537,3.030644,0.3625458,0.01454392,0.9879987,0.1815603,10.60159,-23.68869,-31.93742,1001.117
9.559434414,-0.2946483,2.791569,0.3015125,0.008436238,0.9740928,0.2065966,10.60159,-23.68869,-31.93742,1001.117
9.579617977,0.1342785,2.373188,0.6066786,0.01779006,1.038322,0.1932564,10.60159,-23.68869,-31.93742,1001.113
9.599801540,0.1342785,1.954807,0.3625458,0.01051627,0.9623747,0.1698676,10.23817,-24.0585,-31.49964,1001.113
9.619985104,-0.1720978,1.29735,0.3625458,0.01235164,1.009829,0.1756699,10.23817,-24.0585,-31.49964,1001.115
9.640168667,0.3793795,0.2215127,0.2404793,0.006437802,1.020567,0.1588606,10.23817,-24.0585,-31.49964,1001.115
9.660352230,-0.1108225,-1.212937,-0.06468677,0.02716203,0.9425601,0.1407424,10.25923,-24.79558,-31.93851,1001.113
9.680536270,0.3793795,-1.930163,-0.1867532,0.01509836,0.9833105,0.1177238,10.25923,-24.79558,-31.93851,1001.113
9.700719356,0.50193,-1.870394,-0.1867532,0.006170683,0.9628236,0.1669633,10.98277,-24.05906,-31.93582,1001.117
9.720902443,-0.1720978,-2.0497,-0.3698529,0.03181278,0.9962136,0.1607743,10.98277,-24.05906,-31.93582,1001.117
9.741086483,-0.4171988,-2.766925,-0.7360522,0.02518214,0.9857199,0.1829593,10.98277,-24.05906,-31.93582,1001.115
9.761270046,0.01172798,-4.500219,-0.8581187,0.003059089,0.9806148,0.1760786,10.96837,-23.69416,-30.68129,1001.115
9.781453609,0.1342785,-5.934669,-1.102251,0.01386423,1.006572,0.06660783,10.96837,-23.69416,-30.68129,1001.103
9.801637173,0.1342785,-6.054206,-1.102251,0.03242794,0.9858787,0.1289407,10.23653,-24.06004,-31.06051,1001.103
9.821820736,0.01172798,-5.39675,-0.9191518,0.02092427,0.9798466,0.1337041,10.23653,-24.06004,-31.06051,1001.103
9.839481354,0.07300324,-4.320913,-0.7360522,0.05353221,0.9942361,0.1971973,10.23653,-24.06004,-31.06051,1001.103
9.859664917,0.1342785,-1.989931,-0.3698529,0.05919938,0.9632118,0.2559385,10.97306,-23.68974,-31.93594,1001.102
9.879848957,-0.1108225,-0.7347873,0.05737968,0.03024574,0.9650191,0.2258484,10.97306,-23.68974,-31.93594,1001.102
9.900032043,-0.1720978,-1.033631,-0.12572,-0.02145285,1.013082,0.1879486,10.59995,-23.69024,-31.49829,1001.106
9.920216084,-0.2946483,-1.750856,-0.4308861,-0.07469147,0.9876885,0.2259645,10.59995,-23.69024,-31.49829,1001.106
9.940399170,-0.6010246,-2.229006,-0.003653544,-0.05921384,0.9849567,0.1825815,10.59995,-23.69024,-31.49829,1001.104
9.960582733,0.01172798,-2.288775,-0.2477864,0.009482761,1.006963,0.2160041,10.60965,-24.05955,-31.49817,1001.104
9.980766296,0.01172798,-1.870394,-0.003653544,0.04593873,0.9442167,0.1971917,10.60965,-24.05955,-31.49817,1001.096
10.000949860,-0.233373,-0.7347873,-0.06468677,0.04324615,0.9674539,0.1952226,10.22682,-23.69073,-31.06064,1001.096
10.021133423,0.01172798,0.400819,0.1184129,0.03423815,0.9945163,0.1889592,10.22682,-23.69073,-31.06064,1001.098
10.041316986,0.1342785,1.655963,0.1794461,0.01098264,0.9639797,0.155301,10.22682,-23.69073,-31.06064,1001.098
10.061501026,-0.233373,1.835269,0.4846122,-0.008458841,1.015957,0.1617108,10.21876,-23.31987,-31.4999,1001.102
10.081684113,-0.6010246,1.536425,0.1794461,-0.03068598,0.9404076,0.1247273,10.21876,-23.31987,-31.4999,1001.102
10.099344730,0.07300324,1.118044,-0.2477864,0.0185803,0.9350534,0.1031392,10.22682,-23.69073,-31.06064,1001.102
10.119528770,-0.233373,0.4605878,0.1184129,0.01397317,0.9555715,0.1770267,10.22682,-23.69073,-31.06064,1001.102
10.139711857,0.3793795,0.400819,-0.06468677,0.01015958,0.9920312,0.1592636,10.22682,-23.69073,-31.06064,1001.1
10.159895897,0.1342785,-0.7945561,-0.12572,0.0268502,0.968168,0.1475753,10.21712,-23.32141,-31.06077,1001.1
10.180078983,0.1955537,-0.9140936,-0.1867532,0.00897377,0.9709155,0.136951,10.21712,-23.32141,-31.06077,1001.096
10.200262546,0.1955537,-1.631319,-0.3698529,0.01573028,1.01013,0.1503684,10.59995,-23.69024,-31.49829,1001.096
10.220446110,-0.04954727,-1.750856,-0.06468677,0.008030744,0.9687948,0.1539409,10.59995,-23.69024,-31.49829,1001.094
10.240629673,-0.3559235,-2.52785,0.3015125,-0.004455566,0.9641531,0.1635991,9.472758,-23.32064,-30.68733,1001.094
10.260813713,1.237233,-3.48415,0.1184129,-0.01598102,1.040459,0.1227932,9.472758,-23.32064,-30.68733,1001.094
10.280996799,0.5632053,-3.245075,0.1184129,0.001421319,0.9175008,0.1373647,9.472758,-23.32064,-30.68733,1001.094
10.301180839,-0.478474,-3.782994,0.1184129,0.02764158,0.9819919,0.1716904,9.847287,-23.31882,-31.50138,1001.098
10.321363926,-0.6622998,-4.201375,-0.5529525,0.03807405,0.9560226,0.2164137,9.847287,-23.31882,-31.50138,1001.098
10.341547966,0.6244805,-4.619757,-0.2477864,0.008257909,0.9894071,0.1767315,9.868343,-24.0559,-31.94025,1001.098
10.361731052,-0.4171988,-5.815132,-0.9191518,0.01072905,0.9460307,0.1082339,9.868343,-24.0559,-31.94025,1001.098
10.379391670,-0.3559235,-6.950738,-1.285351,0.04904696,0.9271175,0.1671669,9.868343,-24.0559,-31.94025,1001.098
10.399575710,0.01172798,-7.488657,-0.9801851,0.03417046,1.000555,0.1662092,9.493579,-24.05794,-31.06347,1001.098
10.419758797,-0.1720978,-7.189813,-0.9191518,0.01070908,0.9463187,0.1768483,9.493579,-24.05794,-31.06347,1001.098
10.439942360,-0.04954727,-7.847269,-1.163285,0.05660366,1.019559,0.1889354,10.21712,-23.32141,-31.06077,1001.098
10.460126400,-0.04954727,-7.608194,-1.224318,0.01444571,0.996363,0.1685881,10.21712,-23.32141,-31.06077,1001.098
10.480309486,0.4406548,-8.504725,-0.8581187,-0.00461409,0.8989042,0.09807853,10.21712,-23.32141,-31.06077,1001.098
10.500493526,0.1342785,-7.7875,-0.9801851,0.001391176,0.9991482,0.1613636,9.46608,-23.01155,-31.06384,1001.1
10.520676613,0.1955537,-7.608194,-0.7360522,-0.02497364,1.026238,0.1264176,9.46608,-23.01155,-31.06384,1001.1
10.540860653,-0.478474,-7.249582,-0.9191518,0.004682791,0.966183,0.1680052,9.493579,-24.05794,-31.06347,1001.099
10.561043739,-0.478474,-7.608194,-0.7360522,0.02837023,1.04094,0.1894,9.493579,-24.05794,-31.06347,1001.099
10.581227779,-0.7235751,-6.472588,-0.4919193,-0.01416201,0.9705318,0.09221137,9.493579,-24.05794,-31.06347,1001.099
10.601410866,0.01172798,-6.950738,-1.285351,0.01032321,1.058672,0.1333334,9.477455,-23.31623,-31.94199,1001.099
10.621594429,-0.04954727,-7.488657,-1.102251,0.03222657,1.041844,0.1529182,9.477455,-23.31623,-31.94199,1001.102
10.641778469,-0.3559235,-7.548426,-0.7970854,-0.04053454,0.9573375,0.1129122,9.122103,-24.05689,-31.06495,1001.102
10.659439087,-0.3559235,-8.863338,-1.407418,0.02292146,0.9738843,0.1515869,9.122103,-24.05689,-31.06495,1001.102
10.679622173,-0.5397493,-9.520795,-1.163285,0.04312729,0.9393125,0.1012411,9.122103,-24.05689,-31.06495,1001.102
10.699806213,-0.1720978,-9.520795,-1.285351,0.02803569,1.029873,0.1322508,8.804478,-23.68516,-31.50544,1001.102
10.719989300,0.1342785,-10.41733,-1.65155,0.00482456,0.9556029,0.1113515,8.804478,-23.68516,-31.50544,1001.102
10.740173340,0.07300324,-10.29779,-1.346384,-0.02299782,1.022387,0.1268251,8.814184,-24.05447,-31.50531,1001.102
10.760356426,0.3181043,-10.11848,-1.407418,0.007212969,0.9982526,0.06499318,8.814184,-24.05447,-31.50531,1001.102
10.780540466,1.78871,-11.25409,-1.468451,0.07046074,1.029581,0.2251208,8.802834,-23.6867,-31.06631,1001.102
10.800723553,-0.7848503,-10.17825,-1.529484,-0.002002111,0.8429316,0.07847662,8.802834,-23.6867,-31.06631,1001.105
10.820907593,-0.6010246,-10.47709,-1.83465,0.04755229,1.010177,0.1931423,8.802834,-23.6867,-31.06631,1001.105
10.841091156,-0.1108225,-9.939176,-1.407418,0.02751113,0.9538618,0.1253948,8.831951,-24.79464,-31.06592,1001.105
10.861274242,-0.6010246,-9.461025,-1.83465,0.05727716,1.004352,0.1599248,8.831951,-24.79464,-31.06592,1001.105
10.881458282,-0.8461256,-8.504725,-1.407418,0.05306771,0.9947245,0.09843054,8.071233,-24.05237,-31.50827,1001.105
10.901641369,-0.3559235,-8.026575,-1.712584,-0.004519194,0.9695581,0.1559208,8.071233,-24.05237,-31.50827,1001.105
10.921825409,-0.1108225,-8.7438,-1.346384,-0.03271443,1.027926,0.1400868,8.071233,-24.05237,-31.50827,1001.103
10.939486027,-0.3559235,-8.564494,-1.102251,-0.02446922,1.024202,0.1370815,8.063171,-23.68151,-31.94753,1001.103
10.959669113,-0.4171988,-8.80357,-1.346384,-0.004596822,0.9370689,0.1095388,8.063171,-23.68151,-31.94753,1001.101
10.979853153,-0.478474,-8.923107,-1.041218,0.01319867,0.9808504,0.1186511,8.802834,-23.6867,-31.06631,1001.101
11.000036240,-0.8461256,-7.7875,-1.041218,0.04226917,1.008959,0.1614978,8.802834,-23.6867,-31.06631,1001.101
11.020220280,0.1342785,-7.010507,-1.102251,0.02229209,0.9859521,0.1552327,8.802834,-23.6867,-31.06631,1001.101
11.040403843,-1.213777,-5.994438,-1.163285,0.01791441,0.988596,0.1752415,8.061527,-23.68306,-31.5084,1001.101
11.060587406,0.01172798,-5.39675,-0.8581187,0.03283646,0.9914278,0.1562988,8.061527,-23.68306,-31.5084,1001.101
11.080770969,-0.3559235,-4.799063,-0.9191518,0.008927517,0.9748483,0.1311898,8.071233,-24.05237,-31.50827,1001.105
11.100955009,0.50193,-5.038138,-0.7360522,-0.01183235,1.016081,0.144201,8.071233,-24.05237,-31.50827,1001.105
11.121138096,0.4406548,-4.858831,-0.9191518,-0.01069528,1.002247,0.1239755,8.071233,-24.05237,-31.50827,1001.105
11.141321182,-0.233373,-5.097907,-0.8581187,0.0009998477,0.9921125,0.1373822,8.080938,-24.42168,-31.50814,1001.105
11.161505222,0.1955537,-4.858831,-0.7970854,0.02937153,1.038183,0.1757195,8.080938,-24.42168,-31.50814,1001.105
11.181688309,0.50193,-4.500219,-0.675019,0.03295549,1.021523,0.1510552,8.069589,-24.05391,-31.06914,1001.105
11.199348926,-0.04954727,-3.842763,-0.675019,0.01554305,1.025677,0.1458105,8.069589,-24.05391,-31.06914,1001.103
11.219532966,0.07300324,-3.603688,-0.675019,0.03187165,0.9913845,0.1592189,8.069589,-24.05391,-31.06914,1001.103
11.239716530,-0.2946483,-2.946231,-0.7970854,0.01377647,0.972276,0.1535148,8.067945,-24.05546,-30.63001,1001.103
11.259900093,0.4406548,-3.364613,-0.6139858,0.0174218,1.029315,0.172642,8.067945,-24.05546,-30.63001,1001.103
11.280083656,0.256829,-3.065769,-0.675019,0.01049066,0.9651054,0.1387801,7.698112,-24.05286,-31.07062,1001.103
11.300267696,0.07300324,-3.9623,-0.6139858,0.007568936,1.007213,0.1391312,7.698112,-24.05286,-31.07062,1001.103
11.320450783,0.07300324,-3.902531,-0.3698529,0.0236909,1.029418,0.1716617,7.698112,-24.05286,-31.07062,1001.103
11.340634823,0.07300324,-3.543919,-0.7360522,0.04341678,0.9930882,0.2001089,7.696704,-24.05419,-30.69422,1001.103
11.360817909,-0.5397493,-3.245075,-0.3088197,0.02055091,1.011033,0.115345,7.696704,-24.05419,-30.69422,1001.107
11.381000995,-0.1108225,-2.826694,-0.3088197,0.007463308,0.9753176,0.1793734,6.956806,-24.04922,-31.5127,1001.107
11.401185036,-0.5397493,-3.065769,-0.2477864,0.007462178,0.8959324,0.1714766,6.956806,-24.04922,-31.5127,1001.109
11.421368599,-0.1720978,-3.304844,-0.4919193,0.01550612,0.94915,0.1428362,7.337987,-24.41958,-31.5111,1001.109
11.441552162,0.01172798,-3.245075,-0.3088197,0.02858394,0.9830875,0.2091779,7.337987,-24.41958,-31.5111,1001.109
11.461735725,-0.1108225,-2.946231,-0.4919193,0.03374018,0.9961167,0.1734208,7.337987,-24.41958,-31.5111,1001.109
11.479396343,0.8695816,-2.946231,-0.7360522,0.02403305,1.042084,0.116441,7.707819,-24.42218,-31.07049,1001.109
11.499580383,-0.04954727,-2.707156,-0.4308861,-0.004337908,0.995104,0.1209053,7.707819,-24.42218,-31.07049,1001.109
11.519763470,-0.1720978,-2.348544,-0.4919193,0.006863089,1.025563,0.1443613,7.325228,-24.05314,-30.6957,1001.107
11.539947510,-0.1108225,-2.52785,-0.4308861,0.01634269,0.999568,0.1413999,7.325228,-24.05314,-30.6957,1001.107
11.560130596,0.07300324,-2.109469,-0.4919193,0.01382299,0.9693345,0.108204,7.325228,-24.05314,-30.6957,1001.107
11.580314636,0.01172798,-1.870394,-0.1867532,0.01250779,0.9578833,0.1371745,7.316931,-23.6825,-31.07222,1001.107
11.600497723,-0.1720978,-1.511781,-0.12572,0.01016884,0.9918268,0.1310375,7.316931,-23.6825,-31.07222,1001.107
11.620681763,-0.04954727,-1.332475,-0.2477864,0.004174192,0.9688438,0.1432427,7.344639,-24.79177,-30.69544,1001.107
11.640864849,0.01172798,-1.0934,-0.1867532,0.01305112,0.9928915,0.1257019,7.344639,-24.79177,-30.69544,1001.109
11.661048412,-0.04954727,-0.8543248,-0.06468677,0.01586638,0.9990815,0.1409044,7.344639,-24.79177,-30.69544,1001.109
11.681232452,0.1342785,-1.0934,-0.12572,0.02069519,0.9987218,0.1355378,7.316931,-23.6825,-31.07222,1001.109
11.701415539,0.07300324,-1.153169,-0.3088197,0.01723635,0.9657189,0.1358628,7.316931,-23.6825,-31.07222,1001.109
11.721599579,-0.1108225,-1.332475,-0.2477864,0.0135026,0.9952047,0.1374251,7.326637,-24.05181,-31.0721,1001.109
11.741782665,0.01172798,-1.272706,-0.3088197,0.01661913,0.9768519,0.1360841,7.326637,-24.05181,-31.0721,1001.109
11.759443283,-0.233373,-1.511781,-0.2477864,0.01361853,0.9853969,0.1493954,7.326637,-24.05181,-31.0721,1001.109
11.779627323,-0.2946483,-1.631319,-0.3698529,0.01331848,0.9703942,0.1471526,7.326637,-24.05181,-31.0721,1001.109
11.799810409,0.07300324,-1.212937,-0.1867532,0.01709403,0.9772226,0.1482554,7.326637,-24.05181,-31.0721,1001.109
11.819994450,-0.1108225,-0.9738623,-0.12572,0.009673352,0.9926628,0.143706,6.955162,-24.05076,-31.07357,1001.109
11.840177536,0.01172798,-0.7945561,-0.06468677,0.01824267,1.002052,0.1380402,6.955162,-24.05076,-31.07357,1001.109
11.860361576,-0.04954727,-0.6750186,-0.06468677,0.01030766,0.9800334,0.1478344,6.955162,-24.05076,-31.07357,1001.108
11.880545139,-0.04954727,-0.316406,-0.06468677,0.01835935,0.9923073,0.1436862,7.316931,-23.6825,-31.07222,1001.108
11.900728703,0.07300324,-0.2566373,-0.003653544,0.01259666,0.9903322,0.1387897,7.316931,-23.6825,-31.07222,1001.108
11.920912266,-0.04954727,-0.07733104,-0.12572,0.01169472,0.9848211,0.1557125,7.680346,-23.31269,-31.51,1001.108
11.941095352,-0.04954727,-0.2566373,-0.003653544,0.01268353,0.9829705,0.1483756,7.680346,-23.31269,-31.51,1001.108
11.961279392,0.01172798,-0.4359436,-0.003653544,0.01980505,0.9922467,0.1519549,7.324993,-24.05336,-30.63297,1001.108
11.981462479,0.01172798,-0.4359436,-0.1867532,0.01848197,0.9820828,0.1488361,7.324993,-24.05336,-30.63297,1001.109
12.001646519,0.01172798,-0.6750186,-0.1867532,0.00925945,0.9866697,0.1611051,7.324993,-24.05336,-30.63297,1001.109
12.021829605,-0.1108225,-0.9738623,-0.12572,0.01985641,0.9877669,0.1640308,6.944046,-23.68277,-30.6973,1001.112
12.039490223,-0.1108225,-1.153169,-0.2477864,0.02138632,0.9810943,0.1551379,6.944046,-23.68277,-30.6973,1001.112
12.059674263,0.01172798,-1.272706,-0.12572,0.01268882,0.9824379,0.1532309,7.318575,-23.68095,-31.51135,1001.112
12.079857826,0.01172798,-1.392244,-0.2477864,0.007260977,0.9925256,0.1539252,7.318575,-23.68095,-31.51135,1001.112
12.100041389,0.01172798,-1.511781,-0.2477864,0.007320195,0.9877257,0.1494508,7.318575,-23.68095,-31.51135,1001.112
12.120224953,0.01172798,-1.272706,-0.06468677,0.02379137,0.9815952,0.1570906,7.677292,-23.31556,-30.69448,1001.112
12.140408516,-0.1720978,-0.8543248,-0.1867532,0.01796394,0.9849335,0.1537592,7.677292,-23.31556,-30.69448,1001.112
12.160592079,-0.1720978,-0.4957123,-0.003653544,0.01027209,0.9829106,0.1508109,7.677292,-23.31556,-30.69448,1001.112
12.180776119,0.1342785,-0.2566373,-0.1867532,0.002092438,0.981389,0.1454404,7.677292,-23.31556,-30.69448,1001.112
12.200959205,0.1342785,-0.316406,-0.06468677,0.005879143,0.9872004,0.1513888,7.677292,-23.31556,-30.69448,1001.112
12.221142292,0.07300324,-0.3761748,-0.06468677,0.01788218,0.9917482,0.150488,7.698112,-24.05286,-31.07062,1001.11
12.241326332,-0.04954727,-0.07733104,-0.003653544,0.01602938,0.9854085,0.1518251,7.698112,-24.05286,-31.07062,1001.11
12.261509895,0.01172798,0.04220647,0.1794461,0.02322174,0.9889064,0.1518837,7.709463,-24.42064,-31.50962,1001.108
12.281693458,0.01172798,0.04220647,-0.003653544,0.01218845,0.9838403,0.1576387,7.709463,-24.42064,-31.50962,1001.108
12.299354076,-0.1108225,-0.1968686,-0.1867532,0.01215353,0.9867706,0.1552638,7.709463,-24.42064,-31.50962,1001.106
12.319537639,0.01172798,-0.1968686,-0.003653544,0.009795031,0.9823612,0.1566398,8.061527,-23.68306,-31.5084,1001.106
12.339721203,-0.04954727,-0.4359436,-0.003653544,0.01409366,0.985787,0.1596208,8.061527,-23.68306,-31.5084,1001.106
12.359904766,0.01172798,-0.1370998,0.2404793,0.01365193,0.9823413,0.1644191,6.974573,-24.78939,-31.07332,1001.106
12.380088806,0.01172798,-0.6152498,-0.06468677,0.009075739,0.9618931,0.1674272,6.974573,-24.78939,-31.07332,1001.109
12.400271892,-0.1108225,-1.033631,-0.1867532,0.01711587,0.97515,0.1618388,6.974573,-24.78939,-31.07332,1001.109
12.420455932,-0.233373,-1.750856,-0.2477864,0.01649894,0.9863071,0.1596276,6.974573,-24.78939,-31.07332,1001.107
12.440639019,0.1342785,-2.0497,-0.3698529,0.01699954,0.984924,0.1532738,6.974573,-24.78939,-31.07332,1001.107
12.460823059,0.01172798,-2.468081,-0.3088197,0.02039269,0.9835162,0.1537276,6.582276,-24.05104,-30.69865,1001.107
12.481006145,-0.04954727,-2.886462,-0.2477864,0.003936325,0.9879619,0.1694105,6.582276,-24.05104,-30.69865,1001.107
12.501189709,-0.1108225,-2.52785,-0.3698529,0.02882938,1.003272,0.1774623,7.696704,-24.05419,-30.69422,1001.107
12.521373749,-0.1720978,-2.288775,-0.2477864,0.03677524,0.9846027,0.1663763,7.696704,-24.05419,-30.69422,1001.107
12.541556835,-0.4171988,-3.125538,-0.4919193,0.01467409,0.9774299,0.1725924,7.696704,-24.05419,-30.69422,1001.109
12.561740875,-0.233373,-4.739294,-0.6139858,0.02186493,0.9808022,0.1852998,7.707819,-24.42218,-31.07049,1001.109
12.579401493,-0.233373,-5.8749,-0.7970854,0.0150788,0.9836323,0.1829328,7.707819,-24.42218,-31.07049,1001.109
12.599584579,-0.2946483,-7.548426,-1.224318,0.02321608,0.9884381,0.1990734,6.953753,-24.05209,-30.69718,1001.109
12.619768619,-0.4171988,-8.863338,-1.407418,0.003100466,0.9772485,0.1735789,6.953753,-24.05209,-30.69718,1001.107
12.639951706,-0.2946483,-9.998944,-1.529484,0.007736577,0.9929544,0.1602586,6.953753,-24.05209,-30.69718,1001.107
12.660135746,-0.5397493,-11.07478,-1.65155,-0.005638242,0.9819729,0.1727121,7.326637,-24.05181,-31.0721,1001.107
12.680318832,-0.6010246,-12.38969,-1.83465,-0.01808213,0.9740517,0.1711138,7.326637,-24.05181,-31.0721,1001.107
12.700502872,-0.7235751,-13.28623,-2.01775,-0.001468503,0.9960737,0.1739582,6.955162,-24.05076,-31.07357,1001.107
12.720686436,-0.6010246,-13.70461,-2.01775,0.02483078,0.9752018,0.1681541,6.955162,-24.05076,-31.07357,1001.107
12.740869999,-0.6010246,-14.06322,-2.200849,-0.009567619,0.987636,0.1820751,6.955162,-24.05076,-31.07357,1001.107
12.761053562,-0.5397493,-14.36206,-2.200849,0.02867247,0.9768329,0.1560161,6.964867,-24.42007,-31.07344,1001.107
12.781236649,-0.6010246,-14.42183,-2.200849,0.001137091,0.9801888,0.1673144,6.964867,-24.42007,-31.07344,1001.107
12.801420689,-0.5397493,-14.24253,-2.01775,0.02900738,0.9889005,0.1611203,6.582276,-24.05104,-30.69865,1001.107
12.821603775,-0.4171988,-13.82414,-2.01775,0.02122035,0.994521,0.1690283,6.582276,-24.05104,-30.69865,1001.107
12.841787815,-0.4171988,-13.88391,-2.078783,0.00769885,0.995653,0.1812352,6.582276,-24.05104,-30.69865,1001.107
12.859448433,-0.4171988,-13.58507,-2.078783,0.0314294,0.9878953,0.1683956,6.2108,-24.04998,-30.70013,1001.107
12.879631519,-0.478474,-13.04715,-2.01775,0.02595736,0.9614709,0.186371,6.2108,-24.04998,-30.70013,1001.107
12.899815559,0.07300324,-12.98738,-1.956716,0.04616516,0.965738,0.1771806,6.220506,-24.4193,-30.7,1001.107
12.919999123,-0.5397493,-11.55293,-1.83465,0.041119,0.9443575,0.1757917,6.220506,-24.4193,-30.7,1001.11
12.940182686,-0.233373,-11.31386,-1.83465,0.03653813,1.003784,0.1862197,6.220506,-24.4193,-30.7,1001.11
12.960366249,-0.2946483,-10.77594,-1.468451,0.02000253,0.9746378,0.2177819,6.601688,-24.78967,-30.6984,1001.109
12.980549812,-0.478474,-10.47709,-1.468451,0.001531078,0.9864747,0.2180432,6.601688,-24.78967,-30.6984,1001.109
13.000733376,-0.4171988,-10.59663,-1.712584,0.001947137,0.9926465,0.1826439,5.837681,-24.05048,-30.26248,1001.109
13.020917416,-0.3559235,-11.01501,-1.895683,0.0114498,0.9646804,0.1830497,5.837681,-24.05048,-30.26248,1001.109
13.041100502,-0.5397493,-11.25409,-1.956716,0.01556031,0.9439348,0.1802001,5.837681,-24.05048,-30.26248,1001.109
13.061284542,-0.478474,-11.55293,-1.712584,0.04093513,0.9988599,0.2007134,5.845742,-24.42134,-29.82322,1001.109
13.081467628,-0.7848503,-12.44946,-1.83465,0.04804448,1.010038,0.1590777,5.845742,-24.42134,-29.82322,1001.109
13.101651192,-0.6622998,-12.92761,-2.078783,0.01108637,0.9947489,0.1797526,5.549173,-24.78669,-30.70259,1001.109
13.121834755,-0.9686761,-13.22646,-1.590517,-0.009737956,0.9620259,0.1747563,5.549173,-24.78669,-30.70259,1001.109
13.139495373,-0.233373,-14.12299,-2.139816,-0.01400157,0.9962932,0.1331077,5.549173,-24.78669,-30.70259,1001.109
13.159678936,0.3181043,-14.84021,-2.383949,0.04692771,1.022641,0.1568959,5.176053,-24.78718,-30.26494,1001.109
13.179862499,-0.478474,-13.88391,-2.261883,0.00241941,0.9947391,0.1189418,5.176053,-24.78718,-30.26494,1001.109
13.200046062,-0.6010246,-14.60114,-1.83465,0.02543651,1.004704,0.1745761,5.547529,-24.78823,-30.26346,1001.109
13.220230102,-0.6010246,-13.88391,-1.83465,-0.002721369,0.9414036,0.1149742,5.547529,-24.78823,-30.26346,1001.109
13.240413189,-0.2946483,-13.88391,-1.83465,0.01818675,1.006156,0.1639106,5.146936,-23.67924,-30.26532,1001.109
13.260597229,-0.04954727,-12.92761,-1.83465,-0.0139765,1.034133,0.1285041,5.146936,-23.67924,-30.26532,1001.109
13.280780315,-0.9074008,-13.46553,-1.895683,-0.01357718,1.000244,0.1750317,5.146936,-23.67924,-30.26532,1001.113
13.300964355,-0.6010246,-13.34599,-2.01775,0.01148325,1.002243,0.1575174,4.794872,-24.41682,-30.26654,1001.113
13.321147442,-0.2946483,-13.16669,-1.895683,0.02953684,0.9057636,0.1414704,4.794872,-24.41682,-30.26654,1001.113
13.341331482,-0.9074008,-12.68854,-1.773617,-0.00156073,0.9643166,0.1514335,4.412046,-24.048,-29.82902,1001.113
13.361514568,-0.2946483,-12.74831,-1.407418,0.02125195,1.030962,0.2077033,4.412046,-24.048,-29.82902,1001.107
13.381698608,-0.4171988,-12.569,-1.773617,-0.002590016,0.8506708,0.1277759,4.412046,-24.048,-29.82902,1001.107
13.399359226,0.01172798,-12.86784,-1.83465,0.03994144,0.9616302,0.1912194,4.059982,-24.78558,-29.83024,1001.109
13.419542789,-0.233373,-12.09085,-2.01775,0.01369433,0.9800289,0.1045231,4.059982,-24.78558,-29.83024,1001.109
13.439726353,-0.478474,-12.15062,-1.956716,0.02100737,0.9315571,0.2149814,4.420108,-24.41885,-29.38976,1001.109
13.459909916,-0.9686761,-12.569,-1.65155,0.01419641,0.9381526,0.1260766,4.420108,-24.41885,-29.38976,1001.109
13.480093002,-0.9686761,-13.16669,-1.773617,-0.02503826,1.029622,0.2247752,4.420108,-24.41885,-29.38976,1001.109
13.500277042,-0.6622998,-14.36206,-1.956716,-0.009567561,0.9876409,0.1815886,4.050276,-24.41626,-29.83037,1001.109
13.520460129,-0.1108225,-15.73675,-2.261883,0.02434497,1.015514,0.1577611,4.050276,-24.41626,-29.83037,1001.109
13.540644169,-1.029951,-16.63328,-2.506015,0.01707348,0.899141,0.1554686,4.429813,-24.78817,-29.38963,1001.109
13.560827255,-0.7235751,-17.58958,-2.383949,0.03260364,1.009994,0.1892679,4.429813,-24.78817,-29.38963,1001.101
13.581011295,0.01172798,-16.93212,-2.567049,0.01874932,0.9595855,0.1702869,4.429813,-24.78817,-29.38963,1001.101
13.601194858,0.4406548,-16.81258,-2.994281,0.0638152,0.9018273,0.1987594,3.656335,-23.67945,-29.01658,1001.107
13.621378422,-0.7235751,-15.4379,-2.322916,-0.005441003,0.9266371,0.1341495,3.656335,-23.67945,-29.01658,1001.107
13.641561985,-0.2946483,-16.63328,-2.383949,-0.05093654,0.9790376,0.1566631,3.30568,-24.4157,-29.3942,1001.107
13.661746025,-0.6622998,-16.45397,-2.322916,-0.02439079,1.097372,0.1365832,3.30568,-24.4157,-29.3942,1001.107
13.679406643,0.6857558,-17.17119,-1.83465,-0.05746171,1.001397,0.09093945,3.30568,-24.4157,-29.3942,1001.107
13.699589729,-0.7848503,-16.45397,-2.139816,0.00352483,1.021813,0.1754335,3.313977,-24.78634,-29.01767,1001.107
13.719773769,-0.1720978,-15.67698,-2.139816,0.0259723,1.001382,0.1195253,3.313977,-24.78634,-29.01767,1001.107
13.739956856,-1.213777,-13.58507,-2.322916,0.072901,0.7912394,0.07734361,2.610238,-24.04888,-28.14238,1001.107
13.760140896,-1.520153,-12.09085,-2.01775,0.008016614,1.087534,0.2487424,2.610238,-24.04888,-28.14238,1001.099
13.780323982,0.6244805,-11.67247,-1.773617,-0.02854707,0.9635072,0.09501298,2.632938,-24.78442,-29.02038,1001.099
13.800507545,-0.1108225,-13.22646,-2.01775,-0.0338694,0.8836347,0.1771329,2.632938,-24.78442,-29.02038,1001.095
13.820691109,0.07300324,-13.70461,-1.712584,0.004391513,0.991551,0.1013587,2.632938,-24.78442,-29.02038,1001.095
13.840874672,0.8083063,-13.16669,-2.261883,0.02076752,1.112004,0.145565,2.271168,-25.15268,-29.02173,1001.097
13.861058712,-0.3559235,-12.80808,-1.895683,0.03731816,0.9412557,0.09204297,2.271168,-25.15268,-29.02173,1001.097
13.881241798,-0.478474,-12.09085,-2.200849,0.03840576,0.931089,0.09281334,2.250112,-24.4156,-28.58286,1001.096
13.901425838,-1.029951,-11.31386,-1.529484,0.02888555,0.958574,0.1897154,2.250112,-24.4156,-28.58286,1001.096
13.921608925,0.01172798,-10.53686,-1.590517,-0.003353689,0.9522581,0.1920707,2.250112,-24.4156,-28.58286,1001.094
13.941792965,0.4406548,-10.53686,-1.529484,-0.001369632,0.9887345,0.132453,1.867287,-24.04678,-28.14534,1001.094
13.959453583,-0.233373,-9.939176,-1.712584,0.009355379,1.217931,0.1471917,1.867287,-24.04678,-28.14534,1001.094
13.979636669,-0.3559235,-9.879407,-1.590517,0.004819548,0.9948344,0.1617598,2.258174,-24.78645,-28.1436,1001.088
13.999820709,-0.5397493,-9.162182,-1.346384,-0.01974484,0.9930148,0.1131012,2.258174,-24.78645,-28.1436,1001.088
14.020003796,-0.8461256,-9.162182,-1.163285,0.007678526,0.9978511,0.1550031,2.258174,-24.78645,-28.1436,1001.086
14.040187836,-1.091227,-8.385188,-1.285351,0.008415101,0.8979019,0.1209092,1.523284,-25.15521,-27.7073,1001.086
14.060371399,-0.8461256,-8.026575,-1.65155,0.03548196,0.932409,0.1507476,1.523284,-25.15521,-27.7073,1001.09
14.080554962,-0.1108225,-6.711663,-0.9191518,0.02539355,1.0882,0.1587116,1.896404,-25.15472,-28.14495,1001.09
14.100738525,-0.1720978,-6.532357,-0.9801851,0.01833047,0.9947677,0.1398422,1.896404,-25.15472,-28.14495,1001.09
14.120922089,0.01172798,-6.233513,-1.407418,-0.01220693,0.9688451,0.06979212,1.896404,-25.15472,-28.14495,1001.09
14.141105652,0.3793795,-6.412819,-0.8581187,0.01756532,1.01888,0.1013937,1.524928,-25.15367,-28.14643,1001.094
14.161288738,-0.2946483,-6.35305,-0.9801851,0.01804949,0.9784326,0.1254084,1.524928,-25.15367,-28.14643,1001.094
14.181472778,-0.2946483,-7.189813,-0.9801851,0.01874154,1.001496,0.09715518,1.132398,-24.41553,-27.70904,1001.09
14.201655865,0.1955537,-7.727731,-1.285351,0.03011762,1.017343,0.1285937,1.132398,-24.41553,-27.70904,1001.09
14.221839905,-0.233373,-8.265651,-1.163285,0.01376733,0.974429,0.08300235,1.142103,-24.78484,-27.70891,1001.094
14.239500522,-0.3559235,-9.162182,-1.346384,-0.003921059,1.000371,0.1278211,1.142103,-24.78484,-27.70891,1001.094
14.259684086,-0.1108225,-9.939176,-1.529484,0.006480013,0.9785939,0.09185404,1.142103,-24.78484,-27.70891,1001.094
14.279867649,-0.1720978,-9.221951,-1.224318,0.0226248,0.9591616,0.1211275,1.513578,-24.7859,-27.70743,1001.094
14.300051212,-0.04954727,-9.281719,-1.529484,0.01022207,0.9875014,0.1275457,1.513578,-24.7859,-27.70743,1001.093
14.320234775,-0.2946483,-9.162182,-1.407418,-0.001326822,0.9845169,0.1669171,0.770627,-24.78379,-27.71038,1001.093
14.340418339,0.4406548,-9.401257,-1.407418,-0.003423897,1.03835,0.1587404,0.770627,-24.78379,-27.71038,1001.096
14.360602379,-0.1720978,-8.923107,-1.529484,0.006741342,0.9962132,0.1233439,0.770627,-24.78379,-27.71038,1001.096
14.380785465,-0.233373,-8.026575,-1.346384,0.02756618,0.9893329,0.1153918,0.7692184,-24.78512,-27.33399,1001.096
14.400969505,-0.233373,-6.472588,-0.9801851,0.02838732,0.9611222,0.1274835,0.7692184,-24.78512,-27.33399,1001.096
14.421152592,-0.233373,-5.038138,-0.7360522,0.0430736,0.9832461,0.1171949,0.3863926,-24.4163,-26.89647,1001.096
14.441336632,-0.233373,-3.663456,-0.675019,-0.004189715,0.9831159,0.1085031,0.3863926,-24.4163,-26.89647,1001.096
14.461519718,-0.1720978,-1.272706,-0.3698529,-0.003381072,0.9973968,0.03774294,0.3863926,-24.4163,-26.89647,1001.094
14.481703758,0.01172798,1.895038,0.2404793,-0.007669248,0.992896,0.04544554,0.7675743,-24.78667,-26.89486,1001.094
14.499364376,0.07300324,1.655963,0.1184129,-0.1085396,0.9573791,0.1047409,0.7675743,-24.78667,-26.89486,1001.098
14.519547462,0.07300324,-0.9140936,-0.12572,0.03676931,0.9850823,0.1668723,0.3991508,-24.78275,-27.71186,1001.098
14.539731502,-0.04954727,-0.8543248,-0.003653544,0.0927209,0.9850451,0.1565712,0.3991508,-24.78275,-27.71186,1001.097
14.559915066,-0.1108225,0.8789691,0.05737968,0.05368297,0.9824604,0.1633895,0.3991508,-24.78275,-27.71186,1001.097
14.580098152,0.1342785,0.2215127,0.1184129,-0.04228781,0.9814194,0.1737281,1.1504,-25.15549,-27.33238,1001.097
14.600282192,-0.04954727,-0.3761748,-0.003653544,-0.01824901,0.988373,0.1436621,1.1504,-25.15549,-27.33238,1001.097
14.620465279,0.01172798,0.1019752,-0.003653544,0.02856969,0.9857877,0.1323507,1.140695,-24.78617,-27.33251,1001.099
14.640649319,-0.04954727,0.639894,-0.003653544,0.01838096,0.9902154,0.1592156,1.140695,-24.78617,-27.33251,1001.099
14.660832405,0.1342785,-0.1370998,0.1794461,-0.04085297,0.9823998,0.1747186,1.140695,-24.78617,-27.33251,1001.099
14.681016445,-0.04954727,-0.4359436,-0.003653544,0.0821226,0.9838369,0.1648348,0.7692184,-24.78512,-27.33399,1001.099
14.701199531,-0.04954727,0.04220647,0.05737968,0.03672779,0.9894061,0.1217054,0.7692184,-24.78512,-27.33399,1001.099
14.721383572,-0.04954727,0.161744,0.05737968,-0.008129458,0.9888917,0.1553356,0.7692184,-24.78512,-27.33399,1001.099
14.741567135,0.01172798,-0.07733104,-0.2477864,-0.04082496,0.979867,0.1858599,0.7692184,-24.78512,-27.33399,1001.097
14.761750698,0.01172798,-0.2566373,-0.003653544,0.02284177,0.9799009,0.1799281,0.7692184,-24.78512,-27.33399,1001.097
14.779411316,-0.04954727,0.1019752,0.1184129,0.02907411,0.9837512,0.1430146,0.778924,-25.15444,-27.33386,1001.095
14.799594879,0.1955537,-1.511781,-0.12572,0.008851595,0.9802067,0.1770352,0.778924,-25.15444,-27.33386,1001.095
14.819778919,0.6244805,-3.245075,-0.7360522,-0.04968052,0.8357399,0.1460398,0.4088564,-25.15206,-27.71173,1001.099
14.839962006,-0.6622998,-2.0497,-0.4919193,0.06874549,0.9330203,0.1876914,0.4088564,-25.15206,-27.71173,1001.099
14.860146046,-0.04954727,0.2812815,0.1794461,0.06679711,1.015523,0.1226647,0.4088564,-25.15206,-27.71173,1001.099
14.880329132,0.01172798,1.536425,0.2404793,-0.02343381,0.9788003,0.1240168,1.140695,-24.78617,-27.33251,1001.099
14.900513172,-0.1108225,0.4605878,0.05737968,-0.0452413,0.9870711,0.1368637,1.140695,-24.78617,-27.33251,1001.099
14.920696259,-0.04954727,-0.9738623,-0.4308861,-0.006643845,0.9853442,0.1732669,1.132398,-24.41553,-27.70904,1001.099
14.940880299,-0.04954727,-0.7945561,-0.2477864,0.04357516,0.980973,0.1516968,1.132398,-24.41553,-27.70904,1001.099
14.961063385,-0.1720978,-0.2566373,0.1184129,0.03614609,0.9570432,0.1595061,0.7886295,-25.52375,-27.33373,1001.099
14.981246948,-0.1108225,-0.1370998,0.05737968,0.02523841,0.9816456,0.15417,0.7886295,-25.52375,-27.33373,1001.103
15.001430988,0.07300324,-0.2566373,-0.06468677,-0.008629297,0.9903377,0.1553649,0.7886295,-25.52375,-27.33373,1001.103
15.021614075,0.01172798,-0.1968686,-0.003653544,-0.01482215,0.9839335,0.156707,0.778924,-25.15444,-27.33386,1001.103
15.041798115,-0.1720978,-0.07733104,-0.003653544,0.01415428,0.9811028,0.1434706,0.778924,-25.15444,-27.33386,1001.103
15.059458733,-0.04954727,-0.01756229,-0.06468677,0.03041339,0.9923462,0.1577803,1.121283,-24.04754,-27.33277,1001.103
15.079641819,0.01172798,-0.07733104,-0.12572,0.02952688,0.9861705,0.144035,1.121283,-24.04754,-27.33277,1001.103
15.099825859,0.01172798,-0.1968686,-0.003653544,0.003946399,0.9878252,0.1343735,1.121283,-24.04754,-27.33277,1001.103
15.120008945,0.01172798,-0.07733104,-0.06468677,0.002571457,0.9811307,0.1721968,0.778924,-25.15444,-27.33386,1001.103
15.140192985,0.07300324,0.400819,0.05737968,0.008807094,0.9842842,0.1566793,0.778924,-25.15444,-27.33386,1001.103
15.160376072,0.07300324,0.5801253,0.05737968,0.04885311,0.9827334,0.177513,0.7772799,-25.15598,-26.89473,1001.105
15.180560112,0.5632053,0.5203565,0.1794461,0.03172307,1.004311,0.1259004,0.7772799,-25.15598,-26.89473,1001.105
15.200743675,0.01172798,-0.07733104,-0.12572,-0.01647885,1.001455,0.1463513,0.7772799,-25.15598,-26.89473,1001.105
15.220927238,-0.233373,-0.9738623,-0.2477864,-0.00798947,0.9771949,0.1624027,0.7675743,-24.78667,-26.89486,1001.105
15.241110802,0.01172798,-0.7945561,-0.06468677,0.03483435,0.9855235,0.1683437,0.7675743,-24.78667,-26.89486,1001.105
15.261294842,0.1342785,-0.1370998,0.05737968,0.04154053,0.9896578,0.1523583,0.7692184,-24.78512,-27.33399,1001.105
15.281477928,-0.04954727,-0.01756229,-0.06468677,-0.002782739,0.9856717,0.1460188,0.7692184,-24.78512,-27.33399,1001.105
15.301661968,-0.1108225,-0.2566373,-0.06468677,-0.009555677,0.9876538,0.1314704,0.7692184,-24.78512,-27.33399,1001.105
15.319322586,0.01172798,-0.1968686,-0.12572,0.008309417,0.9859087,0.1387085,0.4171534,-25.5227,-27.33521,1001.103
15.339505672,-0.1108225,0.3410503,-0.003653544,0.01601741,0.9863579,0.1537902,0.4171534,-25.5227,-27.33521,1001.103
15.359689712,-0.233373,0.400819,-0.06468677,0.02522421,0.9824116,0.1746218,0.4074478,-25.15339,-27.33534,1001.103
15.379872799,0.01172798,0.2812815,-0.06468677,0.01846582,0.9836565,0.1367026,0.4074478,-25.15339,-27.33534,1001.103
15.400056839,-0.1108225,0.3410503,0.1184129,0.02759267,0.9866745,0.1391819,0.4074478,-25.15339,-27.33534,1001.103
15.420239925,-0.1108225,0.04220647,0.05737968,0.02332041,0.9805807,0.160964,1.1504,-25.15549,-27.33238,1001.103
15.440423488,0.01172798,-0.01756229,-0.06468677,-0.009036974,0.983889,0.1698355,1.1504,-25.15549,-27.33238,1001.105
15.460607529,-0.04954727,-0.1968686,-0.003653544,-0.01435736,0.9854082,0.1552758,1.520231,-25.15808,-26.89177,1001.105
15.480790615,0.1342785,0.1019752,0.1794461,0.01840613,0.988418,0.1450689,1.520231,-25.15808,-26.89177,1001.105
15.500974655,-0.1108225,0.04220647,0.05737968,0.04061159,0.9867615,0.1498694,0.400795,-24.7812,-28.151,1001.105
15.521157741,0.01172798,-0.1968686,-0.003653544,0.01559335,0.9814638,0.1580733,0.400795,-24.7812,-28.151,1001.105
15.541341782,0.07300324,0.161744,-0.1867532,-0.0003613704,0.9846133,0.1586456,0.400795,-24.7812,-28.151,1001.105
15.561524868,-0.233373,-0.1370998,-0.003653544,0.00153937,0.9871602,0.1489615,0.7595119,-24.41581,-27.33412,1001.105
15.581708908,0.1342785,-0.1968686,0.05737968,0.02476756,0.9806408,0.1570703,0.7595119,-24.41581,-27.33412,1001.105
15.599369526,0.07300324,-0.01756229,0.05737968,0.03824024,0.9832291,0.1605079,1.51217,-24.78722,-27.33103,1001.107
15.619552612,0.1955537,-0.1968686,0.1184129,0.02226861,0.9878896,0.1552711,1.51217,-24.78722,-27.33103,1001.107
15.639736652,0.01172798,-0.1968686,-0.06468677,-0.007621706,0.9871305,0.1382694,1.51217,-24.78722,-27.33103,1001.111
15.659920216,-0.1108225,-0.6152498,-0.06468677,-0.009110475,0.9904174,0.1466087,1.142103,-24.78484,-27.70891,1001.111
15.680103779,0.01172798,0.1019752,-0.003653544,-0.003779989,0.9877943,0.1747709,1.142103,-24.78484,-27.70891,1001.111
15.700287342,0.01172798,0.3410503,0.1794461,0.01372794,0.9760205,0.1667268,0.770627,-24.78379,-27.71038,1001.111
15.720470905,0.1342785,0.161744,0.05737968,0.03098983,0.9846278,0.1551938,0.770627,-24.78379,-27.71038,1001.109
15.740654468,0.07300324,-0.2566373,0.05737968,0.03140121,0.9904134,0.1587138,0.770627,-24.78379,-27.71038,1001.109
15.760838509,0.01172798,-0.6750186,-0.12572,0.03817127,0.989162,0.1484607,0.4155092,-25.52425,-26.89608,1001.109
15.781021595,-0.1108225,-0.4957123,0.05737968,0.006814782,0.9896801,0.1470573,0.4155092,-25.52425,-26.89608,1001.109
15.801205635,0.07300324,-0.7347873,-0.12572,0.005566773,0.9731182,0.1540301,0.7997437,-25.89174,-27.71,1001.107
15.821388721,-0.4171988,-1.930163,-0.4308861,0.007158211,0.9608668,0.1703293,0.7997437,-25.89174,-27.71,1001.107
15.841572761,-0.1720978,-1.452012,-0.3698529,0.05695401,0.9922877,0.1056754,0.7997437,-25.89174,-27.71,1001.107
15.861755848,0.3793795,-0.2566373,0.05737968,-0.04385401,0.991878,0.1427959,0.7916822,-25.52088,-28.14926,1001.107
15.879416466,-0.1108225,0.3410503,0.1184129,-0.03794017,0.9811392,0.1596052,0.7916822,-25.52088,-28.14926,1001.107
15.899600506,0.1342785,-0.8543248,0.1184129,0.07435492,0.9881491,0.1581193,1.13905,-24.78772,-26.89338,1001.107
15.919783592,-0.04954727,0.1019752,0.05737968,0.04068777,0.9804553,0.1507177,1.13905,-24.78772,-26.89338,1001.107
15.939967632,0.01172798,-0.6152498,-0.1867532,0.005354542,0.9904776,0.1621594,1.13905,-24.78772,-26.89338,1001.107
15.960151196,0.4406548,-1.810625,-0.3088197,-0.01450624,1.036985,0.1820859,0.7886295,-25.52375,-27.33373,1001.107
15.980334282,0.01172798,-3.304844,-0.3698529,0.02382215,0.9783222,0.1940064,0.7886295,-25.52375,-27.33373,1001.107
16.000518322,0.07300324,-4.022069,-0.7360522,0.04605613,0.9741764,0.2055698,0.7692184,-24.78512,-27.33399,1001.109
16.020701408,0.4406548,-3.782994,-0.8581187,0.01609348,0.978103,0.253377,0.7692184,-24.78512,-27.33399,1001.109
16.040885448,1.175958,-4.380682,-0.9801851,-0.0009685875,0.9540188,0.2135119,0.7692184,-24.78512,-27.33399,1001.109
16.061068535,1.78871,-5.8749,-1.102251,0.01509091,0.9817255,0.2286343,0.778924,-25.15444,-27.33386,1001.109
16.081252575,3.259316,-7.907038,-0.9801851,0.004941317,0.9835704,0.2228466,0.778924,-25.15444,-27.33386,1001.109
16.101435661,3.872069,-9.341488,-1.224318,0.0002922091,0.969699,0.197763,0.4171534,-25.5227,-27.33521,1001.109
16.121619701,3.933344,-10.47709,-1.407418,0.02280562,0.9827298,0.1877695,0.4171534,-25.5227,-27.33521,1001.109
16.141803264,3.626968,-11.25409,-1.468451,0.01657291,0.9798175,0.1789625,0.4155092,-25.52425,-26.89608,1001.109
16.159463882,2.646564,-11.91154,-1.468451,0.002567574,0.981779,0.1556657,0.4155092,-25.52425,-26.89608,1001.109
16.179647445,1.604885,-12.32993,-1.285351,0.004880343,0.9901646,0.1441502,0.4155092,-25.52425,-26.89608,1001.109
16.199831009,0.1342785,-12.98738,-1.468451,0.01270905,0.981202,0.13131,-0.3387918,-25.15437,-26.46004,1001.109
16.220015049,-0.9686761,-13.64484,-1.529484,0.02857926,0.9846404,0.1503317,-0.3387918,-25.15437,-26.46004,1001.108
16.240198135,-1.581429,-14.12299,-1.773617,0.03139076,0.9914884,0.1480301,0.03104019,-25.15697,-26.01942,1001.108
16.260382175,-2.010355,-14.89998,-1.895683,0.00260279,0.978873,0.1556081,0.03104019,-25.15697,-26.01942,1001.112
16.280565262,-2.561833,-15.91605,-2.139816,0.005048627,0.9759591,0.1599261,0.03104019,-25.15697,-26.01942,1001.112
16.300749302,-2.929484,-16.87235,-2.200849,0.01558062,0.9823506,0.1663628,0.03104019,-25.15697,-26.01942,1001.112
16.320932388,-2.745659,-17.05166,-2.322916,0.02924587,0.9688635,0.1787271,0.03104019,-25.15697,-26.01942,1001.112
16.341116428,-2.378007,-17.11143,-2.200849,0.01138043,1.010226,0.182978,-0.6483545,-25.1535,-26.46127,1001.112
16.361299515,-1.765254,-16.51374,-2.261883,-0.01189771,0.9807277,0.1911869,-0.6483545,-25.1535,-26.46127,1001.112
16.381483555,-1.275052,-16.3942,-2.261883,0.01810077,0.972976,0.1870968,-0.6483545,-25.1535,-26.46127,1001.113
16.401667118,-0.6622998,-16.09536,-2.200849,0.01511725,0.9800246,0.2047578,-0.6514082,-25.15637,-25.64574,1001.113
16.419327736,0.1342785,-15.19883,-2.444982,0.01256013,0.9921602,0.1986761,-0.6514082,-25.15637,-25.64574,1001.113
16.439511299,0.01172798,-14.54137,-2.383949,0.02356225,0.9598517,0.1994803,0.0393362,-25.52761,-25.6429,1001.113
16.459694862,-0.5397493,-13.88391,-2.261883,0.02465783,0.9890211,0.1912974,0.0393362,-25.52761,-25.6429,1001.113
16.479878425,-1.275052,-12.86784,-1.773617,-0.003793363,0.9886279,0.1884119,0.0393362,-25.52761,-25.6429,1001.113
16.500061989,-2.500558,-13.22646,-1.895683,-0.015497,0.9593831,0.1883368,-0.6417027,-25.52568,-25.64561,1001.115
16.520246029,-3.419686,-14.84021,-2.139816,0.02415072,0.9908355,0.2030121,-0.6417027,-25.52568,-25.64561,1001.115
16.540429115,-4.154989,-15.19883,-2.383949,0.02959622,0.9396528,0.1932326,-0.6417027,-25.52568,-25.64561,1001.115
16.560612202,-3.542237,-15.73675,-1.529484,-0.01532889,0.8252559,0.2285016,-0.6417027,-25.52568,-25.64561,1001.115
16.580796242,0.4406548,-15.85628,-1.65155,-0.05880419,1.07183,0.1200708,-0.6417027,-25.52568,-25.64561,1001.115
16.600979805,0.9308568,-16.99189,-2.750148,0.05207304,0.9564458,0.1458465,-1.034234,-24.78754,-25.20822,1001.115
16.621163368,0.50193,-20.69755,-2.689115,-0.04879873,0.9614317,0.1762616,-1.034234,-24.78754,-25.20822,1001.115
16.641346931,1.911261,-20.87686,-2.689115,-0.09689192,0.9887882,0.2284518,-1.757774,-25.52407,-25.21092,1001.115
16.661530495,2.033811,-21.53431,-2.506015,0.01306219,0.9908978,0.1801601,-1.757774,-25.52407,-25.21092,1001.115
16.681714058,1.727435,-19.14356,-2.383949,0.01816823,0.9669176,0.2117927,-1.770534,-25.15763,-24.39552,1001.115
16.699374676,2.033811,-17.88842,-2.628082,-0.002955295,0.9598781,0.1571867,-1.770534,-25.15763,-24.39552,1001.117
16.719558716,0.5632053,-16.69304,-2.383949,0.03451387,1.012356,0.1494117,-1.770534,-25.15763,-24.39552,1001.117
16.739741802,-0.478474,-15.2586,-1.895683,0.001566291,0.9855076,0.1202201,-1.019521,-25.53059,-23.9533,1001.117
16.759925842,-1.581429,-15.13906,-2.01775,0.006159449,1.00445,0.1225346,-1.019521,-25.53059,-23.9533,1001.117
16.780108929,-2.132906,-14.60114,-1.956716,-0.004335424,0.9943396,0.1491122,-2.142009,-25.15658,-24.397,1001.117
16.800292969,-2.132906,-14.36206,-2.078783,0.0106743,0.9502306,0.1243744,-2.142009,-25.15658,-24.397,1001.117
16.820476055,-1.703979,-13.70461,-1.773617,0.01601951,0.9865317,0.1362765,-2.142009,-25.15658,-24.397,1001.117
16.840660095,-1.642704,-12.569,-2.01775,0.001758344,0.9693889,0.1335253,-2.142009,-25.15658,-24.397,1001.117
16.860843182,-1.581429,-11.73224,-2.01775,0.009275568,0.9860631,0.1245991,-2.142009,-25.15658,-24.397,1001.117
16.881027222,-1.458878,-10.71617,-1.895683,0.01316567,0.9839398,0.100222,-2.524835,-24.78775,-23.95947,1001.117
16.901210785,-1.397603,-9.401257,-1.712584,0.008531438,1.008035,0.1065447,-2.524835,-24.78775,-23.95947,1001.119
16.921394348,-1.765254,-8.863338,-1.407418,-0.009508635,0.9847556,0.08178114,-2.524835,-24.78775,-23.95947,1001.119
16.941577911,-2.071631,-8.80357,-1.590517,-0.005322692,0.9972878,0.09467427,-2.153358,-24.78881,-23.95799,1001.119
16.961761951,1.053407,-8.982876,-1.712584,0.07561233,1.319746,0.2887599,-2.153358,-24.78881,-23.95799,1001.119
16.979422569,-0.5397493,-7.7875,-1.65155,-0.02225819,1.001982,0.08457373,-2.515129,-25.15707,-23.95934,1001.117
16.999605656,-0.233373,-7.667963,-1.224318,-0.01827946,1.032289,0.06375788,-2.515129,-25.15707,-23.95934,1001.117
17.019789696,0.1955537,-6.233513,-1.529484,0.03831038,0.9793318,0.06505965,-2.515129,-25.15707,-23.95934,1001.115
17.039972782,-0.5397493,-6.412819,-0.7970854,-0.01109903,0.9574473,0.0481551,-2.508712,-25.52948,-23.08096,1001.115
17.060156822,-0.233373,-7.30935,-1.224318,0.006694784,0.9604751,0.1114452,-2.508712,-25.52948,-23.08096,1001.115
17.080339909,-0.1108225,-9.042645,-1.773617,0.01111566,0.9942612,0.08242558,-2.897955,-24.78825,-23.52182,1001.115
17.100523949,-0.5397493,-9.819638,-1.83465,-0.002206923,0.9788722,0.09965769,-2.897955,-24.78825,-23.52182,1001.118
17.120707035,-0.1720978,-9.819638,-1.773617,0.005935143,1.062395,0.1421721,-2.897955,-24.78825,-23.52182,1001.118
17.140891075,0.1342785,-9.640332,-1.590517,0.02432826,0.9783647,0.09279647,-2.137236,-25.53053,-23.07948,1001.114
17.161074638,-0.1720978,-9.520795,-1.590517,0.04045078,0.9996459,0.1695881,-2.137236,-25.53053,-23.07948,1001.114
17.181258201,0.07300324,-8.80357,-1.346384,-0.01950105,0.9734171,0.08643727,-3.250019,-25.52583,-23.52304,1001.114
17.201441765,0.01172798,-8.982876,-1.285351,0.005326889,0.9930393,0.1480991,-3.250019,-25.52583,-23.52304,1001.114
17.221624851,-0.1720978,-8.7438,-1.224318,-0.007707703,0.9945647,0.1213862,-2.881598,-25.52975,-22.70604,1001.112
17.241808891,-0.1108225,-7.369119,-1.163285,0.03588781,0.9793218,0.1112887,-2.881598,-25.52975,-22.70604,1001.112
17.259469509,0.07300324,-6.35305,-0.8581187,0.03739028,1.013905,0.1440857,-2.881598,-25.52975,-22.70604,1001.112
17.279652595,-0.04954727,-4.679525,-0.675019,0.004389411,0.9913773,0.1188724,-3.232251,-26.266,-23.08366,1001.112
17.299836635,0.07300324,-4.380682,-0.675019,0.02081275,0.9890493,0.1338864,-3.232251,-26.266,-23.08366,1001.112
17.320019722,-0.3559235,-4.500219,-0.7970854,-0.01750313,0.9665457,0.1471217,-3.626193,-25.52919,-22.26987,1001.11
17.340203762,-0.1720978,-4.619757,-0.675019,0.007628262,0.9627759,0.1251138,-3.626193,-25.52919,-22.26987,1001.11
17.360387325,0.01172798,-3.782994,-0.7360522,0.02906354,0.9848165,0.1333039,-3.626193,-25.52919,-22.26987,1001.1
17.380570888,-0.1720978,-3.48415,-0.6139858,0.01410727,0.9849728,0.1440339,-3.253073,-25.5287,-22.70752,1001.1
17.400754452,-0.1720978,-3.065769,-0.4308861,0.007059367,0.969178,0.1627085,-3.253073,-25.5287,-22.70752,1001.102
17.420938492,-0.04954727,-3.006,-0.4308861,0.00569515,1.002046,0.1687135,-3.253073,-25.5287,-22.70752,1001.102
17.441121578,-0.2946483,-2.707156,-0.6139858,0.01019015,0.9897108,0.1489993,-3.253073,-25.5287,-22.70752,1001.106
17.461305618,-0.1108225,-2.587619,-0.3698529,0.02025276,0.995218,0.146174,-3.253073,-25.5287,-22.70752,1001.106
17.481488705,-0.1720978,-2.587619,-0.4919193,-0.0004237145,0.9901246,0.1402645,-3.245011,-25.89956,-22.26826,1001.106
17.501672745,0.07300324,-1.452012,-0.12572,0.01267045,0.9838281,0.1595841,-3.245011,-25.89956,-22.26826,1001.106
17.519333362,0.07300324,-0.7347873,-0.3698529,0.005937134,0.9822991,0.1571308,-3.241958,-25.89669,-23.08378,1001.106
17.539516449,-0.04954727,-0.4359436,-0.003653544,0.00642792,0.9820439,0.134742,-3.241958,-25.89669,-23.08378,1001.106
17.559700489,-0.233373,-0.3761748,0.05737968,0.004912026,0.9879361,0.1246426,-3.241958,-25.89669,-23.08378,1001.098
17.579883575,-0.1108225,-0.01756229,-0.1867532,0.01791287,0.9894375,0.1392508,-2.880188,-25.52842,-23.08244,1001.098
17.600067615,-0.04954727,0.5203565,-0.003653544,0.03970047,0.9824315,0.1454058,-2.880188,-25.52842,-23.08244,1001.102
17.620251179,0.01172798,1.177813,0.1184129,-0.01464943,0.970095,0.1355097,-3.245011,-25.89956,-22.26826,1001.102
17.640434742,0.01172798,-0.3761748,-0.2477864,-0.00377085,0.9875804,0.1475178,-3.245011,-25.89956,-22.26826,1001.102
17.660618305,-0.04954727,-0.4957123,0.05737968,0.04454245,0.9802519,0.1769837,-3.245011,-25.89956,-22.26826,1001.102
17.680801868,0.07300324,0.7594315,0.05737968,0.02904126,0.9858834,0.172252,-3.253073,-25.5287,-22.70752,1001.1
17.700985432,0.07300324,0.2812815,0.1184129,-0.01577295,0.9831098,0.1406348,-3.253073,-25.5287,-22.70752,1001.1
17.721169472,0.01172798,-0.6750186,-0.06468677,0.007373895,0.9834388,0.1420671,-2.871892,-25.89906,-22.70591,1001.104
17.741352558,-0.1108225,0.3410503,-0.12572,0.02859582,0.9831005,0.1590597,-2.871892,-25.89906,-22.70591,1001.104
17.761536598,0.1342785,0.5203565,-0.003653544,0.0160403,0.9843722,0.1586168,-2.871892,-25.89906,-22.70591,1001.097
17.781719685,0.07300324,-0.2566373,-0.003653544,0.007379122,0.9829015,0.1474088,-2.891303,-25.16043,-22.70617,1001.097
17.799380302,0.07300324,-0.1370998,0.1184129,0.01122452,0.9838694,0.1532614,-2.891303,-25.16043,-22.70617,1001.097
17.819564342,0.01172798,0.3410503,0.05737968,0.005842349,0.9899762,0.1645817,-2.891303,-25.16043,-22.70617,1001.097
17.839747429,0.1342785,-0.1968686,0.1184129,0.007813696,0.9867255,0.153323,-2.891303,-25.16043,-22.70617,1001.102
17.859931469,0.1955537,-0.316406,-0.06468677,0.02133385,0.9854824,0.1523053,-2.891303,-25.16043,-22.70617,1001.102
17.880114555,0.01172798,0.3410503,0.1184129,0.0174874,0.9844275,0.1552096,-3.64396,-24.78902,-22.70925,1001.102
17.900298595,0.01172798,0.1019752,-0.06468677,0.00158574,0.9832371,0.1537496,-3.64396,-24.78902,-22.70925,1001.102
17.920482159,0.01172798,-0.2566373,-0.003653544,0.01121801,0.9843006,0.1586224,-2.871892,-25.89906,-22.70591,1001.102
17.940665722,-0.04954727,-0.07733104,-0.003653544,0.02712624,0.9850646,0.1542349,-2.871892,-25.89906,-22.70591,1001.102
17.960849285,0.07300324,0.2215127,0.1184129,0.01410662,0.9849197,0.1493853,-2.881598,-25.52975,-22.70604,1001.102
17.981033325,-0.1720978,-0.5554811,-0.3088197,-0.006477927,0.9719127,0.159863,-2.881598,-25.52975,-22.70604,1001.102
18.001216412,-0.04954727,-0.316406,0.1184129,0.04889875,0.9797193,0.1394995,-2.881598,-25.52975,-22.70604,1001.102
18.021399498,0.01172798,0.6996628,0.2404793,0.004451988,0.9858853,0.1353076,-3.614843,-25.89696,-22.70887,1001.102
18.041583538,0.01172798,-0.1370998,-0.12572,-0.01969821,0.988144,0.1645829,-3.614843,-25.89696,-22.70887,1001.106
18.061766624,0.07300324,-0.01756229,0.05737968,0.02659536,0.9887924,0.1684205,-3.262778,-25.15938,-22.70764,1001.106
18.079428196,0.07300324,0.6996628,0.05737968,0.03150832,0.9818159,0.1463788,-3.262778,-25.15938,-22.70764,1001.104
18.099611282,0.1342785,0.1019752,0.05737968,0.009760808,0.9853492,0.148427,-3.262778,-25.15938,-22.70764,1001.104
18.119795322,0.01172798,-0.1370998,0.05737968,0.00107463,0.9856904,0.1499062,-3.264422,-25.16093,-22.26851,1001.104
18.139978409,0.1955537,-0.01756229,-0.12572,0.008312543,0.9851974,0.1615639,-3.264422,-25.16093,-22.26851,1001.104
18.160161972,-0.04954727,0.400819,0.2404793,-0.003194594,0.9798475,0.1463908,-2.881598,-25.52975,-22.70604,1001.108
18.180346012,-0.04954727,0.161744,-0.003653544,0.002961996,0.9890708,0.1538631,-2.881598,-25.52975,-22.70604,1001.108
18.200529098,0.1342785,-0.316406,-0.12572,0.08647377,0.9828795,0.1701619,-2.881598,-25.52975,-22.70604,1001.108
18.220713138,0.1342785,0.5801253,0.1794461,-0.009995916,0.9833615,0.172746,-2.880188,-25.52842,-23.08244,1001.108
18.240896225,0.07300324,-0.01756229,0.1184129,-0.02166552,0.9917278,0.1422737,-2.880188,-25.52842,-23.08244,1001.108
18.261080265,0.01172798,-0.7347873,-0.12572,0.01564967,0.9773943,0.1287974,-3.626193,-25.52919,-22.26987,1001.108
18.281263351,-0.1108225,-0.1968686,0.1794461,0.01563478,0.9781023,0.1550872,-3.626193,-25.52919,-22.26987,1001.112
18.301447391,-0.1108225,0.2215127,0.05737968,-0.007219691,0.9931107,0.1709885,-3.626193,-25.52919,-22.26987,1001.112
18.321630478,0.07300324,0.2812815,0.1184129,-0.007087764,0.9826868,0.1474258,-3.623139,-25.52633,-23.08539,1001.114
18.341814518,-0.04954727,0.8192003,-0.06468677,-0.009022667,0.9831327,0.1484107,-3.623139,-25.52633,-23.08539,1001.114
18.359475136,0.01172798,0.9387378,0.1184129,0.009765802,0.9847925,0.1557148,-3.616487,-25.89851,-22.26974,1001.114
18.379658699,0.07300324,0.9985065,0.1794461,0.03438587,0.9824896,0.180449,-3.616487,-25.89851,-22.26974,1001.112
18.399842262,0.1955537,0.6996628,0.3015125,0.06525873,0.9818486,0.1935288,-3.616487,-25.89851,-22.26974,1001.112
18.420025825,0.3181043,-0.1370998,-0.003653544,0.02957097,0.9820592,0.1677963,-3.243367,-25.89801,-22.70739,1001.111
18.440209389,0.3181043,-0.9140936,-0.06468677,-0.04376638,0.984579,0.1460574,-3.243367,-25.89801,-22.70739,1001.111
18.460392952,-1.275052,-1.930163,-0.1867532,-0.0386483,0.997362,0.281574,-3.632845,-25.15701,-23.08552,1001.111
18.480576992,-0.233373,-0.6152498,-0.12572,0.03791234,0.9698017,0.1947903,-3.632845,-25.15701,-23.08552,1001.111
18.500760078,0.01172798,-0.4359436,-0.12572,0.05217861,0.9863974,0.2038564,-2.871892,-25.89906,-22.70591,1001.113
18.520944118,-0.1720978,-0.316406,-0.1867532,0.02452394,0.9606063,0.1737047,-2.871892,-25.89906,-22.70591,1001.113
18.541127205,0.07300324,-0.3761748,0.1184129,0.004481424,0.9825013,0.1834126,-2.871892,-25.89906,-22.70591,1001.113
18.561311245,-0.1108225,-0.8543248,-0.06468677,0.0007787122,1.009705,0.1708186,-3.253073,-25.5287,-22.70752,1001.113
18.581494331,0.07300324,-1.392244,-0.4308861,0.01926237,0.9969383,0.1666461,-3.253073,-25.5287,-22.70752,1001.111
18.601678371,-0.04954727,-1.57155,-0.1867532,0.01553188,0.9870476,0.1323948,-3.264422,-25.16093,-22.26851,1001.111
18.619338989,0.01172798,-1.691087,-0.3698529,0.004062326,0.9780174,0.1463439,-3.264422,-25.16093,-22.26851,1001.111
18.639522076,0.1955537,-1.452012,-0.4308861,0.006732145,0.9964223,0.1510835,-3.264422,-25.16093,-22.26851,1001.111
18.659706116,0.1342785,-0.9738623,-0.12572,0.03036632,0.9962114,0.15883,-3.254716,-25.53024,-22.26839,1001.115
18.679889679,-0.1720978,-0.4957123,-0.1867532,0.03106993,1.018292,0.1320172,-3.254716,-25.53024,-22.26839,1001.115
18.700073242,0.1955537,-1.153169,-0.3088197,-0.01157779,1.035079,0.1343583,-3.245011,-25.89956,-22.26826,1001.113
18.720256805,0.1342785,-1.631319,-0.2477864,0.00428023,1.000773,0.09959503,-3.245011,-25.89956,-22.26826,1001.113
18.740440845,0.1955537,-1.332475,-0.1867532,0.02073726,0.9557667,0.1186302,-3.245011,-25.89956,-22.26826,1001.111
18.760623932,-0.5397493,-0.8543248,-0.2477864,0.02513791,0.9105282,0.1430309,-3.624549,-25.52765,-22.70899,1001.111
18.780807972,-0.1720978,-0.316406,-0.12572,0.02131983,0.9862629,0.1712977,-3.624549,-25.52765,-22.70899,1001.111
18.800991058,-0.04954727,-0.6750186,-0.003653544,0.01992696,0.9819643,0.1629427,-3.251663,-25.52737,-23.08391,1001.111
18.821175098,-0.4171988,-1.452012,-0.1867532,0.0207545,0.9929594,0.1792164,-3.251663,-25.52737,-23.08391,1001.11
18.841358185,-0.6010246,-2.52785,-0.4308861,0.01755891,0.9777351,0.1949772,-3.251663,-25.52737,-23.08391,1001.11
18.861542225,-0.2946483,-3.065769,-0.5529525,0.02553766,0.9956136,0.2118632,-3.935756,-25.52832,-22.2711,1001.11
18.881725311,-0.04954727,-3.782994,-0.5529525,0.02145267,0.9749442,0.1890772,-3.935756,-25.52832,-22.2711,1001.11
18.899385929,-0.1720978,-4.022069,-0.675019,0.01715135,0.9712962,0.2084748,-3.624549,-25.52765,-22.70899,1001.108
18.919569969,0.1342785,-3.9623,-0.675019,0.02386539,0.9751103,0.1759391,-3.624549,-25.52765,-22.70899,1001.108
18.939753532,-0.1720978,-4.380682,-0.7360522,0.003984682,0.9842029,0.1576579,-3.624549,-25.52765,-22.70899,1001.11
18.959937096,0.1955537,-4.858831,-0.8581187,0.01440801,1.000033,0.1404388,-3.624549,-25.52765,-22.70899,1001.11
18.980120659,0.07300324,-5.157675,-1.041218,0.01017631,0.9905058,0.1665321,-3.624549,-25.52765,-22.70899,1001.11
19.000304222,-0.3559235,-5.994438,-0.9801851,0.007369808,0.983101,0.1761214,-3.943817,-25.15746,-22.71035,1001.11
19.020487785,-0.3559235,-6.233513,-0.9801851,0.03158839,0.9748612,0.1637581,-3.943817,-25.15746,-22.71035,1001.106
19.040671825,-0.04954727,-6.233513,-0.9801851,0.01525757,1.00897,0.1688365,-3.943817,-25.15746,-22.71035,1001.106
19.060854912,0.07300324,-6.233513,-0.675019,0.01930743,0.993876,0.1334975,-4.297524,-25.89658,-22.27245,1001.106
19.081038952,-0.04954727,-6.35305,-0.9191518,0.0124824,0.999308,0.1618371,-4.297524,-25.89658,-22.27245,1001.106
19.101222038,-0.4171988,-6.293282,-0.9801851,-0.006592522,0.9421847,0.1281332,-3.25636,-25.53179,-21.82926,1001.11
19.121406078,-0.04954727,-6.054206,-0.9191518,0.006811687,0.9894242,0.1728413,-3.25636,-25.53179,-21.82926,1001.11
19.141589165,0.01172798,-6.113976,-0.675019,0.01662313,0.976213,0.1516422,-3.935756,-25.52832,-22.2711,1001.108
19.161773205,-0.233373,-5.994438,-0.7360522,0.004072372,0.9769087,0.1604329,-3.935756,-25.52832,-22.2711,1001.108
19.179433822,-0.04954727,-6.054206,-0.7360522,0.0155944,0.9815508,0.1493164,-3.935756,-25.52832,-22.2711,1001.108
19.199616909,-0.04954727,-5.8749,-0.7360522,0.02563353,0.9889953,0.1465295,-3.608424,-26.26937,-21.83048,1001.108
19.219800949,-0.233373,-5.755363,-0.9191518,0.01516018,0.9777557,0.1404834,-3.608424,-26.26937,-21.83048,1001.11
19.239984512,0.07300324,-5.8749,-0.9191518,-3.028386E-05,0.9973342,0.1467322,-3.639186,-25.16297,-21.39173,1001.11
19.260168075,0.07300324,-6.233513,-0.7970854,-1.331857E-05,0.9958282,0.1520548,-3.639186,-25.16297,-21.39173,1001.108
19.280351639,-0.1720978,-6.651894,-0.8581187,0.004160205,0.9705962,0.113109,-3.639186,-25.16297,-21.39173,1001.108
19.300535679,0.01172798,-6.532357,-1.102251,0.03453419,1.010158,0.1756439,-4.299169,-25.89812,-21.83332,1001.11
19.320718765,-0.1108225,-6.35305,-1.041218,0.01981197,0.9918492,0.1431884,-4.299169,-25.89812,-21.83332,1001.11
19.340902805,-0.1720978,-6.532357,-0.9801851,-0.01209715,0.9972053,0.1905402,-3.935756,-25.52832,-22.2711,1001.11
19.361085892,-0.6010246,-6.950738,-0.9191518,0.01315084,0.9846527,0.1260252,-3.935756,-25.52832,-22.2711,1001.11
19.381269932,-0.2946483,-7.966806,-1.163285,-0.009272361,1.002243,0.2242102,-3.935756,-25.52832,-22.2711,1001.11
19.401453018,-0.1108225,-7.608194,-0.9191518,0.014508,0.9908469,0.1874558,-3.942097,-25.53428,-20.57731,1001.11
19.421636581,-0.2946483,-6.950738,-1.224318,0.01186145,0.9714573,0.1354977,-3.942097,-25.53428,-20.57731,1001.11
19.441820145,-0.233373,-6.771431,-0.7970854,0.01121871,0.9843585,0.1527845,-3.947104,-25.16055,-21.83209,1001.11
19.459480762,-0.1108225,-6.771431,-0.9801851,0.006410663,0.9835259,0.1318519,-3.947104,-25.16055,-21.83209,1001.11
19.479664802,-0.1720978,-7.369119,-0.9191518,0.02041389,0.9813907,0.1726623,-3.947104,-25.16055,-21.83209,1001.11
19.499848366,-0.1108225,-7.070275,-1.041218,-0.004164222,0.9803755,0.1405636,-4.302222,-25.90099,-21.01779,1001.11
19.520031929,0.1342785,-7.130044,-0.9191518,0.007467405,1.015302,0.153889,-4.302222,-25.90099,-21.01779,1001.11
19.540215492,0.01172798,-7.010507,-0.9191518,0.007648294,0.9605537,0.1537784,-3.921041,-26.27136,-21.01618,1001.11
19.560398579,0.01172798,-6.532357,-0.7970854,0.01807852,0.9750147,0.1769188,-3.921041,-26.27136,-21.01618,1001.11
19.580582619,-0.233373,-6.113976,-0.7970854,0.02150637,0.9706575,0.1816934,-3.921041,-26.27136,-21.01618,1001.11
19.600765705,0.01172798,-5.576056,-0.8581187,0.02467701,0.9876985,0.1781334,-4.303866,-25.90254,-20.57866,1001.11
19.620949745,0.01172798,-5.576056,-0.9191518,0.00200694,0.9878947,0.1733047,-4.303866,-25.90254,-20.57866,1001.11
19.641132831,-0.233373,-5.038138,-0.9191518,-0.003920046,0.9598396,0.1596203,-4.321633,-25.16236,-21.01805,1001.11
19.661316872,-0.2946483,-4.978369,-1.102251,0.0008825494,1.000837,0.1857271,-4.321633,-25.16236,-21.01805,1001.11
19.681500435,-0.7235751,-4.978369,-0.675019,0.01415126,0.940238,0.2088377,-4.286072,-26.57962,-20.57842,1001.11
19.701683998,-0.04954727,-4.44045,-0.4919193,0.006440214,0.9801517,0.178984,-4.286072,-26.57962,-20.57842,1001.11
19.719344616,-0.04954727,-4.619757,-0.675019,0.0003606259,0.9646897,0.165549,-4.286072,-26.57962,-20.57842,1001.11
19.739528179,-0.04954727,-4.799063,-0.5529525,0.02057725,1.007393,0.1892341,-4.675344,-25.90149,-20.58014,1001.11
19.759712219,-0.5397493,-4.9186,-0.4919193,0.02587692,0.9674248,0.2210366,-4.675344,-25.90149,-20.58014,1001.11
19.779895306,-0.478474,-4.679525,-0.5529525,0.01824117,0.9613129,0.1907584,-5.030669,-26.57906,-20.14225,1001.11
19.800079346,-0.1720978,-4.500219,-0.4919193,0.004300224,0.9579322,0.1688156,-5.030669,-26.57906,-20.14225,1001.11
19.820262432,-0.4171988,-3.782994,-0.4919193,0.010186,0.9497214,0.1749701,-5.030669,-26.57906,-20.14225,1001.11
19.840446472,-0.233373,-4.081838,-0.3088197,0.004469424,0.9824787,0.2345038,-5.048463,-25.90198,-20.14249,1001.114
19.860629559,-0.3559235,-4.261144,-0.7970854,0.01102675,0.999515,0.1876324,-5.048463,-25.90198,-20.14249,1001.114
19.880813599,-0.3559235,-4.739294,-0.5529525,0.01103136,0.8799893,0.172129,-3.922685,-26.2729,-20.57705,1001.114
19.900996685,-0.4171988,-4.559988,-0.7970854,0.01161546,0.9502578,0.2207178,-3.922685,-26.2729,-20.57705,1001.114
19.921180725,-0.3559235,-5.576056,-0.4919193,0.007471252,0.9740351,0.2109761,-3.922685,-26.2729,-20.57705,1001.114
19.941364288,0.256829,-5.277213,-0.9191518,0.04569259,1.043882,0.2118158,-3.934035,-25.90513,-20.13805,1001.114
19.961547852,-0.6010246,-4.679525,-0.4308861,0.001497698,0.9905025,0.1538936,-3.934035,-25.90513,-20.13805,1001.109
19.981731415,0.1955537,-4.9186,-0.7970854,0.03318113,1.042009,0.1864946,-4.315216,-25.53477,-20.13966,1001.109
19.999392033,-0.9074008,-4.978369,-0.12572,-0.04431989,0.9893447,0.20211,-4.315216,-25.53477,-20.13966,1001.113
20.019575596,-0.233373,-4.858831,-0.9801851,0.007007953,1.0133,0.1596891,-4.315216,-25.53477,-20.13966,1001.113
20.039759159,-0.3559235,-5.157675,-0.4308861,-0.00514778,0.9826607,0.1041163,-4.297214,-26.27472,-19.763,1001.113
20.059943199,0.1955537,-4.619757,-0.5529525,0.02490196,1.010066,0.1216451,-4.297214,-26.27472,-19.763,1001.113
20.080126286,-0.3559235,-4.799063,-0.675019,0.0419179,0.999418,0.09708002,-4.659194,-26.58011,-20.14077,1001.111
20.100310326,-0.7235751,-4.739294,-0.4919193,0.01584513,0.9209417,0.1539555,-4.659194,-26.58011,-20.14077,1001.111
20.120493412,-0.5397493,-5.277213,-0.675019,0.006110247,1.007169,0.1902241,-4.659194,-26.58011,-20.14077,1001.109
20.140677452,-0.1720978,-4.9186,-0.675019,-0.003716975,0.983308,0.1386746,-4.667281,-26.27235,-20.14088,1001.109
20.160860538,-0.1108225,-5.336981,-0.675019,-0.001829522,0.9876652,0.09301895,-4.667281,-26.27235,-20.14088,1001.109
20.181044578,0.01172798,-5.516288,-0.8581187,0.01057993,0.9995273,0.03922437,-4.286072,-26.57962,-20.57842,1001.109
20.201227665,0.5632053,-5.336981,-1.224318,0.03998572,1.040705,0.0351303,-4.286072,-26.57962,-20.57842,1001.107
20.221411705,-0.2946483,-5.157675,-0.7970854,0.007796845,0.9901803,0.04926179,-4.65755,-26.57856,-20.5799,1001.107
20.241595268,-0.7235751,-4.022069,-0.4919193,0.006963267,0.9777161,0.1322227,-4.65755,-26.57856,-20.5799,1001.106
20.261778831,-0.1108225,-3.245075,-0.6139858,0.02104406,1.010004,0.1221361,-4.65755,-26.57856,-20.5799,1001.106
20.279439449,-0.233373,-3.006,-0.3088197,0.01616213,0.9750522,0.1214515,-5.032079,-26.58038,-19.76585,1001.106
20.299623012,-0.04954727,-2.0497,-0.2477864,0.009992698,1.006353,0.1318118,-5.032079,-26.58038,-19.76585,1001.106
20.319807052,-0.2946483,-1.930163,0.05737968,-0.01657178,0.9696399,0.1296644,-5.032313,-26.5806,-19.70312,1001.106
20.339990139,0.1342785,-1.631319,-0.2477864,-0.0005715867,1.003109,0.1011081,-5.032313,-26.5806,-19.70312,1001.106
20.360174179,-0.1720978,-1.452012,-0.2477864,0.01699474,0.9864672,0.09540054,-5.032313,-26.5806,-19.70312,1001.107
20.380357265,-0.3559235,-1.0934,-0.12572,0.02393259,1.009646,0.1625115,-5.403789,-26.57955,-19.7046,1001.107
20.400541305,-0.1108225,-0.6152498,-0.12572,0.02585409,1.011001,0.1265281,-5.403789,-26.57955,-19.7046,1001.107
20.420724392,0.07300324,-0.2566373,-0.1867532,0.02256091,0.9635755,0.1645212,-4.305511,-25.90408,-20.13953,1001.107
20.440908432,-0.04954727,-0.4359436,-0.003653544,0.00660226,1.007015,0.157619,-4.305511,-25.90408,-20.13953,1001.107
20.461091518,0.07300324,-0.3761748,0.05737968,0.01928813,0.9951891,0.1476346,-4.305511,-25.90408,-20.13953,1001.107
20.481275558,-0.1108225,-0.8543248,0.1184129,0.00989879,1.014102,0.1319653,-4.668691,-26.27367,-19.76448,1001.107
20.501459122,-0.5397493,-1.212937,-0.3698529,0.01037356,0.9748166,0.1365395,-4.668691,-26.27367,-19.76448,1001.107
20.521642685,-0.04954727,-1.332475,-0.003653544,0.02738342,1.00428,0.1225001,-4.667281,-26.27235,-20.14088,1001.106
20.539303303,-0.3559235,-1.452012,-0.06468677,0.01602526,0.9860377,0.1372399,-4.667281,-26.27235,-20.14088,1001.106
20.559486866,-0.2946483,-1.332475,-0.12572,0.02267171,0.9949287,0.1301073,-4.667281,-26.27235,-20.14088,1001.106
20.579670429,-0.4171988,-1.332475,-0.3088197,0.003186665,0.9708006,0.1398767,-4.667281,-26.27235,-20.14088,1001.111
20.599853992,-0.1108225,-1.332475,-0.2477864,0.003116817,0.9766611,0.1351269,-4.667281,-26.27235,-20.14088,1001.111
20.620038032,-0.1108225,-1.57155,-0.3698529,0.009946261,0.9706241,0.1189401,-5.048463,-25.90198,-20.14249,1001.111
20.640221119,-0.233373,-1.870394,-0.3088197,0.02244761,0.9736004,0.1306587,-5.048463,-25.90198,-20.14249,1001.111
20.660405159,0.3181043,-1.691087,-0.3698529,0.02791707,0.9998122,0.134089,-5.048463,-25.90198,-20.14249,1001.111
20.680588245,-0.04954727,-1.452012,-0.2477864,0.01841991,0.9876183,0.1280225,-5.033723,-26.58193,-19.32672,1001.111
20.700772285,0.3181043,-1.511781,-0.4919193,0.01352114,0.9938288,0.1296124,-5.033723,-26.58193,-19.32672,1001.113
20.720955372,0.07300324,-1.989931,-0.4308861,0.01204312,0.996065,0.1462028,-4.667281,-26.27235,-20.14088,1001.113
20.741139412,-0.1720978,-1.930163,-0.3698529,0.02351464,1.004287,0.164839,-4.667281,-26.27235,-20.14088,1001.113
20.761322498,-0.04954727,-2.169238,-0.4919193,0.0113236,0.9755775,0.1589362,-4.667281,-26.27235,-20.14088,1001.113
20.781506538,-0.1720978,-2.229006,-0.5529525,0.02097324,0.9751688,0.1657262,-4.668925,-26.27389,-19.70175,1001.113
20.801690102,-0.3559235,-2.229006,-0.5529525,0.0007952002,0.9685137,0.1714631,-4.668925,-26.27389,-19.70175,1001.113
20.819350719,-0.1720978,-2.408313,-0.4919193,0.004848369,0.9923692,0.1660903,-5.049872,-25.90331,-19.76609,1001.115
20.839534283,-0.1720978,-2.587619,-0.4308861,0.008120899,1.00135,0.1448534,-5.049872,-25.90331,-19.76609,1001.115
20.859717846,0.01172798,-2.408313,-0.3698529,0.008173021,0.996933,0.1506049,-5.049872,-25.90331,-19.76609,1001.115
20.879901886,-0.04954727,-1.750856,-0.003653544,0.001000373,0.9921559,0.1330038,-4.680041,-25.9059,-19.32548,1001.115
20.900084972,-0.1108225,-1.153169,-0.06468677,-0.001888302,0.991532,0.1427274,-4.680041,-25.9059,-19.32548,1001.113
20.920269012,-0.1108225,-0.9140936,-0.12572,0.00349594,0.9846271,0.1630195,-4.670335,-26.27522,-19.32535,1001.113
20.940452099,-0.1720978,-0.3761748,0.05737968,0.006072479,0.9711879,0.1539912,-4.670335,-26.27522,-19.32535,1001.113
20.960636139,-0.04954727,0.04220647,-0.12572,0.01325827,0.9751121,0.1598973,-5.432696,-25.53448,-19.32857,1001.113
20.980819225,-0.04954727,0.161744,-0.003653544,0.01582126,0.9624921,0.1659694,-5.432696,-25.53448,-19.32857,1001.113
21.001003265,0.1342785,-0.1968686,-0.1867532,0.01858268,0.9739261,0.1408892,-5.432696,-25.53448,-19.32857,1001.113
21.021186352,-0.1108225,-0.4359436,-0.06468677,0.009778066,0.9838673,0.1513171,-5.413285,-26.27311,-19.32831,1001.111
21.041370392,0.01172798,-0.7347873,-0.12572,0.01353601,0.9921489,0.1524487,-5.413285,-26.27311,-19.32831,1001.111
21.061553955,0.01172798,-0.9140936,-0.2477864,0.01212947,0.9886597,0.1601671,-5.040401,-26.27284,-19.70323,1001.111
21.081737518,-0.233373,-1.332475,-0.1867532,0.01719135,0.968786,0.1685249,-5.040401,-26.27284,-19.70323,1001.111
21.099398136,-0.1108225,-1.452012,-0.3088197,0.0197983,0.9926586,0.1592618,-5.040401,-26.27284,-19.70323,1001.109
21.119581699,-0.1108225,-1.870394,-0.4308861,0.007423391,0.9788046,0.1697107,-5.413285,-26.27311,-19.32831,1001.109
21.139765739,0.1342785,-2.647388,-0.4919193,0.01378251,0.9321594,0.1434757,-5.413285,-26.27311,-19.32831,1001.107
21.159948826,-0.3559235,-3.125538,-0.4308861,0.008604199,0.9608303,0.1761654,-4.292414,-26.58558,-18.88464,1001.107
21.180132866,-0.1108225,-3.424381,-0.6139858,0.03812679,0.9922725,0.1767444,-4.292414,-26.58558,-18.88464,1001.106
21.200315952,0.50193,-3.245075,-0.7360522,0.05280381,0.976893,0.08834627,-4.292414,-26.58558,-18.88464,1001.106
21.220499992,0.07300324,-2.0497,-0.3698529,0.003423201,0.9912181,0.1334682,-5.032313,-26.5806,-19.70312,1001.106
