Time (s),Gyroscope X (deg/s),Gyroscope Y (deg/s),Gyroscope Z (deg/s),Accelerometer X (g),Accelerometer Y (g),Accelerometer Z (g),Magnetometer X (uT),Magnetometer Y (uT),Magnetometer Z (uT),Barometer (hPa)
0.000000000,0.01126455,0.05067389,-0.07497869,0.01365275,0.9824088,0.1576082,4.042214,-24.0454,-30.26963,1001.391
0.020183086,-0.0499813,-0.06899093,0.1082901,0.01509909,0.9824013,0.1605255,4.042214,-24.0454,-30.26963,1001.391
0.040366650,0.01120789,-0.009217832,-0.07492812,0.0121992,0.9827896,0.1658899,4.042214,-24.0454,-30.26963,1001.391
0.060550213,0.07237798,-0.009157214,0.1081489,0.01749908,0.9834539,0.1556769,4.043623,-24.04408,-30.64602,1001.393
0.080733776,0.07242709,0.110347,0.04705493,0.01264163,0.9862933,0.1552537,4.043623,-24.04408,-30.64602,1001.393
0.098394394,0.01106972,0.1100858,0.1081573,0.01847458,0.9824417,0.1614945,4.416744,-24.04358,-31.08368,1001.395
0.118577480,0.01109964,-0.009409253,0.04694838,0.01168832,0.985262,0.1601005,4.416744,-24.04358,-31.08368,1001.395
0.138761044,0.01107182,-0.1888231,-0.01406866,0.01310607,0.9877391,0.1567414,4.416744,-24.04358,-31.08368,1001.395
0.158944607,0.07212695,-0.009549357,0.2300995,0.01652259,0.9843842,0.1581297,4.054974,-24.41185,-31.08503,1001.395
0.179128170,0.01080526,-0.009525329,0.04692036,0.010236,0.9857442,0.1581658,4.054974,-24.41185,-31.08503,1001.395
0.199311256,0.01087424,0.05024858,-0.01405841,0.01461692,0.982399,0.1600396,4.4151,-24.04513,-30.64455,1001.395
0.219495297,0.01086613,0.05006613,0.04704848,0.01027726,0.9823684,0.1566392,4.4151,-24.04513,-30.64455,1001.395
0.239678383,0.01081962,-0.129272,-0.07498281,0.0116477,0.9886912,0.1562757,4.4151,-24.04513,-30.64455,1001.395
0.259861946,0.01063857,0.2891524,0.04700372,0.01222378,0.9809438,0.1566082,3.680444,-24.41367,-30.27098,1001.395
0.280045509,-0.05060571,-0.06964197,-0.01414753,0.01267609,0.9833244,0.1615205,3.680444,-24.41367,-30.27098,1001.395
0.300229073,-0.1732407,0.109614,-0.01426531,0.01073578,0.9842935,0.158623,4.053329,-24.41339,-30.6459,1001.39
0.320412159,-0.1117805,0.04977641,-0.01421031,0.01214121,0.987691,0.1601479,4.053329,-24.41339,-30.6459,1001.39
0.340596199,-0.05053233,0.04959524,-0.07518872,0.01022379,0.9866744,0.162077,4.413691,-24.04645,-30.26815,1001.392
0.360779286,-0.05048244,-0.0102043,0.1079657,0.01221187,0.981898,0.1580868,4.413691,-24.04645,-30.26815,1001.392
0.378439903,0.01082676,0.04953056,-0.01403138,0.01700412,0.9843335,0.163967,4.413691,-24.04645,-30.26815,1001.392
0.398623467,-0.05034101,0.04946246,-0.01403453,0.01024809,0.9848045,0.1552277,4.789863,-24.04309,-31.52133,1001.392
0.418806553,0.07225891,-0.01007398,0.04705303,0.01414091,0.9819363,0.1571116,4.789863,-24.04309,-31.52133,1001.392
0.438990593,-0.1728312,-0.7865734,-0.07457589,0.0367091,0.9898003,0.1796171,3.672147,-24.04303,-30.6475,1001.392
0.459173679,0.1948888,-0.6053863,-0.1961678,0.01147132,0.9635508,0.150426,3.672147,-24.04303,-30.6475,1001.394
0.479357242,0.3781292,0.4708266,0.1091842,0.001033195,0.9890518,0.1528924,3.672147,-24.04303,-30.6475,1001.394
0.499540806,0.1940467,0.350501,0.3532154,-0.004105997,0.9754934,0.1443596,4.043623,-24.04408,-30.64602,1001.388
0.519724369,-0.112259,-0.008447345,0.04756497,0.01248757,0.9987659,0.1676654,4.043623,-24.04408,-30.64602,1001.388
0.539907455,-0.05056736,-0.06798859,0.04756045,0.02912413,0.9791604,0.1662798,4.054974,-24.41185,-31.08503,1001.387
0.560091019,-0.2955607,0.230463,0.1694117,0.03110035,0.9753432,0.1632818,4.054974,-24.41185,-31.08503,1001.387
0.580274582,0.2559855,0.05067198,0.1083363,0.01749199,0.983837,0.1659028,4.054974,-24.41185,-31.08503,1001.385
0.600458145,0.07174789,-0.3672548,-0.01348483,0.007825902,0.9857954,0.1494118,4.413691,-24.04645,-30.26815,1001.385
0.620641231,0.07149082,0.05163574,0.047678,0.009766619,0.9848601,0.1489039,4.413691,-24.04645,-30.26815,1001.389
0.640825272,0.01018988,0.5294122,0.04767317,0.006396122,0.9842629,0.1552226,4.424805,-24.41444,-30.64442,1001.389
0.658484936,0.01035984,0.170312,0.04758763,0.008318587,0.9847276,0.1600949,4.424805,-24.41444,-30.64442,1001.385
0.678668976,0.07174371,-0.06851514,-0.01341178,0.02530239,0.9762694,0.1589294,4.424805,-24.41444,-30.64442,1001.385
0.698852539,0.0104422,0.1110945,-0.135272,0.03775777,0.9832027,0.1624544,4.045268,-24.04253,-31.08516,1001.383
0.719035625,0.1326396,-0.00862816,-0.01288504,0.02713217,0.984585,0.1537388,4.045268,-24.04253,-31.08516,1001.383
0.739219665,0.1934472,-0.4267813,-0.2567558,-0.003712975,0.9826692,0.1542328,4.063035,-24.7827,-30.64577,1001.383
0.759402752,0.1930578,-0.4254284,0.04867176,-0.01631515,0.9878399,0.1514341,4.063035,-24.7827,-30.64577,1001.383
0.779586315,-0.1130723,-0.06619826,-0.01210039,-0.0008373201,0.9841555,0.1552311,4.063035,-24.7827,-30.64577,1001.383
0.799769878,0.131928,0.4113299,0.170704,0.01114688,0.990055,0.1645754,4.043623,-24.04408,-30.64602,1001.383
0.819953442,0.009584826,0.05187239,-0.07345502,0.01558573,0.9818034,0.1726776,4.043623,-24.04408,-30.64602,1001.383
0.840136528,0.1319959,-0.06773897,-0.07374949,0.03968593,0.9831685,0.1687765,4.033918,-23.67476,-30.64615,1001.383
0.860319614,0.43781,0.05185596,0.04823383,0.02681781,0.9703388,0.1729208,4.033918,-23.67476,-30.64615,1001.383
0.880503654,0.4981784,-0.06781162,-0.01255648,0.0191001,0.9700553,0.1899571,4.033918,-23.67476,-30.64615,1001.383
0.900687218,1.170494,-0.4256347,-0.0124866,0.03010269,0.977432,0.1954394,3.691559,-24.78165,-30.64725,1001.385
0.920870304,1.35165,-0.2451849,-0.1955932,0.02609552,0.9902382,0.1684498,3.691559,-24.78165,-30.64725,1001.385
0.938530922,0.7367938,-0.8416582,-0.1952976,-0.004200138,0.9832236,0.1464591,4.434511,-24.78376,-30.64429,1001.385
0.958714008,0.4288756,-1.257589,-0.1336974,-0.0008938534,0.9891777,0.1373269,4.434511,-24.78376,-30.64429,1001.385
0.978898048,0.550234,-1.015394,0.0496805,0.01547736,0.9912667,0.1465894,4.434511,-24.78376,-30.64429,1001.387
0.999081135,0.6103393,0.06196041,0.1718137,0.008400875,0.9779564,0.1589876,3.69015,-24.78298,-30.27085,1001.387
1.019264698,1.098682,0.479473,-0.01148749,0.02358339,0.9577213,0.2189015,3.69015,-24.78298,-30.27085,1001.39
1.039448738,1.218243,-0.4177742,-0.4385187,0.02803201,0.9879835,0.2520953,4.053329,-24.41339,-30.6459,1001.39
1.059631825,0.9090778,-1.431931,-0.4983936,0.03809707,0.9936934,0.2288373,4.053329,-24.41339,-30.6459,1001.39
1.079814911,0.2948317,-0.4124553,-0.3752485,0.01039564,0.9727633,0.148177,4.436155,-24.78221,-31.08342,1001.39
1.099998951,0.3551743,1.14071,-0.1301546,0.01342712,1.001569,0.1307389,4.436155,-24.78221,-31.08342,1001.39
1.120182514,1.088431,2.511026,-0.00824045,-0.009056599,0.9861451,0.1377655,4.436155,-24.78221,-31.08342,1001.392
1.140365601,0.9626868,2.743197,0.1745925,0.02059719,1.006134,0.1697457,3.693203,-24.78011,-31.08638,1001.392
1.160548687,0.7155921,2.497761,0.1741159,0.04934685,0.9817525,0.1794392,3.693203,-24.78011,-31.08638,1001.39
1.180732727,0.28551,3.090593,0.3571367,0.05563943,0.9799177,0.1784205,3.320085,-24.7806,-30.64873,1001.39
1.198393345,0.6531615,4.106662,0.1130039,0.02135429,0.983294,0.1775645,3.320085,-24.7806,-30.64873,1001.39
1.218576431,1.265914,5.062962,0.1740371,0.006054814,0.9726361,0.1545064,3.320085,-24.7806,-30.64873,1001.39
1.238759995,1.44974,5.003193,0.2961035,-0.02630768,0.9764916,0.1570632,3.691559,-24.78165,-30.64725,1001.39
1.258944035,1.327189,4.525043,0.05197065,-0.006673133,0.9877707,0.1728284,3.691559,-24.78165,-30.64725,1001.39
1.279127121,1.511015,4.2262,0.1740371,-0.004346082,0.9944282,0.1890141,4.794872,-24.41682,-30.26654,1001.389
1.299310207,1.57229,5.003193,0.4181699,-0.001228387,0.9761719,0.1779433,4.794872,-24.41682,-30.26654,1001.389
1.319493771,1.143364,5.421575,0.9674689,-0.000959087,0.9934806,0.1919099,4.794872,-24.41682,-30.26654,1001.389
1.339677811,0.4693357,6.079031,0.7843693,0.01375449,0.973367,0.1900304,4.433102,-24.78508,-30.26789,1001.389
1.359860897,0.4693357,6.915793,0.8454025,0.01608717,0.9795207,0.2081525,4.433102,-24.78508,-30.26789,1001.395
1.380043984,0.7144368,7.513481,1.028502,0.02379017,0.9805266,0.2159465,4.433102,-24.78508,-30.26789,1001.395
1.400228024,0.8982626,8.888164,1.333668,0.01742868,0.9882991,0.2044316,4.433102,-24.78508,-30.26789,1001.393
1.420411110,1.082088,9.904232,1.455735,0.02534078,0.9726569,0.1812408,4.433102,-24.78508,-30.26789,1001.393
1.440594673,0.6531615,10.80076,1.333668,0.02430164,1.017749,0.225441,4.061626,-24.78403,-30.26937,1001.393
1.460778713,0.530611,12.77313,0.5402364,0.009756313,0.9849775,0.1858868,4.061626,-24.78403,-30.26937,1001.393
1.478438377,0.28551,14.14781,0.9674689,0.03378032,0.9530023,0.1725675,4.805986,-24.78481,-30.64281,1001.393
1.498622417,0.28551,15.88111,2.005034,0.02329906,0.9817247,0.1921282,4.805986,-24.78481,-30.64281,1001.393
1.518805504,0.775712,17.25579,2.249167,-0.02181119,0.9633097,0.1738262,4.805986,-24.78481,-30.64281,1001.393
1.538989067,1.388465,17.07648,2.554333,-0.02015202,0.9856378,0.1723194,5.167757,-24.41654,-30.64146,1001.393
1.559173107,2.368869,15.76157,2.371233,-0.0108099,0.9715473,0.1413718,5.167757,-24.41654,-30.64146,1001.393
1.579356193,1.44974,14.44666,2.1271,-0.003200015,1.019045,0.2002045,4.796281,-24.41549,-30.64294,1001.393
1.599539280,0.3467852,14.50643,2.1271,-0.01202079,0.9909135,0.1899289,4.796281,-24.41549,-30.64294,1001.396
1.619723320,-2.04295,13.60989,2.493299,-0.000885541,0.9473103,0.2060802,5.548938,-24.78691,-30.63985,1001.396
1.639906406,-3.758657,13.84897,2.737432,0.01396567,0.9559207,0.190658,5.548938,-24.78691,-30.63985,1001.396
1.660089970,-3.758657,13.37082,2.615366,0.006681557,0.9603512,0.1727527,5.548938,-24.78691,-30.63985,1001.396
1.680273056,-2.716978,13.43059,2.798466,0.05755825,0.9810503,0.1648157,5.552226,-24.78382,-31.51812,1001.398
1.700457096,1.633566,12.05591,2.3102,0.0534758,1.038915,0.1868901,5.552226,-24.78382,-31.51812,1001.398
1.720640182,2.859071,9.904232,1.944,0.04848923,0.9740883,0.1204118,5.85044,-24.41692,-31.07788,1001.398
1.740823746,0.9595378,9.007701,1.272635,0.03839767,1.009712,0.1775757,5.85044,-24.41692,-31.07788,1001.398
1.758484363,-0.8174446,7.274406,0.4181699,0.04892541,0.9770755,0.1618302,5.85044,-24.41692,-31.07788,1001.398
1.778667450,-1.859124,7.752556,0.05197065,0.01634919,0.9594902,0.1274689,5.53117,-24.04673,-31.07924,1001.398
1.798851490,-0.3885178,9.485851,1.150569,0.04993523,1.013698,0.1348181,5.53117,-24.04673,-31.07924,1001.398
1.819034576,1.756116,11.99614,0.8454025,0.0415966,0.986536,0.0763889,6.586739,-24.04684,-31.89058,1001.398
1.839218140,1.878667,12.65359,1.394701,-0.02101133,0.9778336,0.1274002,6.586739,-24.04684,-31.89058,1001.396
1.859401703,1.878667,13.07198,1.150569,-0.06116088,0.9476629,0.1292949,6.586739,-24.04684,-31.89058,1001.396
1.879585266,1.57229,10.86053,1.211602,-0.04806802,0.9818742,0.1192479,5.840734,-24.04761,-31.07801,1001.396
1.899768352,0.8982626,8.529551,1.333668,-0.01422173,0.9346746,0.1411336,5.840734,-24.04761,-31.07801,1001.396
1.919952393,0.4693357,7.931863,1.638834,0.01358366,0.988332,0.1465341,6.967921,-24.41721,-31.88897,1001.396
1.940135479,0.8982626,8.290476,2.188133,0.04541454,0.9891133,0.1153612,6.967921,-24.41721,-31.88897,1001.396
1.960319042,0.8982626,8.888164,2.1271,0.07185854,0.9956104,0.1349145,6.967921,-24.41721,-31.88897,1001.396
1.980502129,1.082088,10.44215,1.516768,0.04236549,1.041054,0.1499682,6.966511,-24.41853,-31.51258,1001.396
2.000686169,0.4080605,12.11568,1.089535,0.04066733,0.9826437,0.1254585,6.966511,-24.41853,-31.51258,1001.396
2.020869255,0.8982626,12.59383,1.516768,-0.009627276,0.9933693,0.1413154,6.956806,-24.04922,-31.5127,1001.396
2.038529873,1.388465,10.9203,1.760901,-0.01423177,0.97543,0.1356146,6.956806,-24.04922,-31.5127,1001.396
2.058713436,0.6531615,10.38238,1.150569,-0.01730764,0.9893865,0.1894199,6.956806,-24.04922,-31.5127,1001.396
2.078896999,-0.3885178,8.11117,1.882967,-0.007933812,0.9721003,0.1876043,6.956806,-24.04922,-31.5127,1001.396
2.099080563,-0.6948941,8.051401,1.760901,0.008434164,0.9748909,0.1749842,6.956806,-24.04922,-31.5127,1001.396
2.119263649,-1.246371,8.11117,1.821934,0.03275822,0.9579184,0.1639077,6.955162,-24.05076,-31.07357,1001.395
2.139447212,-0.2046921,8.589319,1.699868,0.05869233,0.9669701,0.1694012,6.955162,-24.05076,-31.07357,1001.395
2.159630775,1.204639,8.11117,1.821934,0.02770825,0.9768379,0.1540712,7.339396,-24.41826,-31.88749,1001.395
2.179814339,3.165447,6.856025,0.9064357,0.03268776,1.082666,0.1902195,7.339396,-24.41826,-31.88749,1001.395
2.199997425,2.552694,4.166431,0.1740371,0.05654312,0.945927,0.1383329,7.339396,-24.41826,-31.88749,1001.395
2.220181465,-0.5723436,5.302037,-0.6193948,0.03512472,0.9610502,0.193648,7.326637,-24.05181,-31.0721,1001.395
2.240364552,-2.533152,6.318106,0.2961035,0.0488577,0.9821427,0.1882062,7.326637,-24.05181,-31.0721,1001.395
2.260548115,-3.697382,9.366313,1.272635,0.03051629,0.9437544,0.1719026,6.9471,-23.6799,-31.51283,1001.395
2.280731678,-1.062546,13.84897,1.150569,0.02468882,1.026381,0.1861977,6.9471,-23.6799,-31.51283,1001.395
2.298391819,1.817391,16.41903,1.333668,0.003165631,0.9332941,0.1109124,6.9471,-23.6799,-31.51283,1001.393
2.318575859,2.123768,17.19602,2.1271,-0.05703599,0.9638734,0.2108697,7.690051,-23.68201,-31.50988,1001.393
2.338758946,1.265914,17.85348,3.042598,-0.07058913,1.007853,0.2020283,7.690051,-23.68201,-31.50988,1001.393
2.358942509,0.4693357,17.6144,3.408798,-0.07390225,1.003273,0.1703143,8.062936,-23.68173,-31.88479,1001.393
2.379126072,0.04040897,17.19602,3.83603,-0.02785685,0.9448355,0.1710365,8.062936,-23.68173,-31.88479,1001.393
2.399309635,-0.6948941,15.76157,4.812562,0.02885249,1.03998,0.238039,8.062936,-23.68173,-31.88479,1001.393
2.419492722,1.265914,16.12018,4.080163,0.007892348,1.01833,0.2400742,8.082348,-24.42036,-31.88454,1001.397
2.439676762,3.349273,15.10411,3.164665,0.0727631,0.959753,0.1852951,8.082348,-24.42036,-31.88454,1001.397
2.459859848,3.471823,12.47429,2.798466,0.05638704,0.8789418,0.1501453,8.074286,-24.0495,-32.3238,1001.398
2.480043411,0.9595378,11.75706,2.066067,0.04517027,0.9670867,0.2351126,8.074286,-24.0495,-32.3238,1001.398
2.500226498,0.4693357,10.80076,0.723336,0.09412828,0.9876348,0.1906814,8.074286,-24.0495,-32.3238,1001.398
2.520410538,-1.246371,10.50192,0.8454025,0.07950369,0.9609137,0.176063,8.82389,-24.42379,-31.50518,1001.398
2.540593624,-3.452281,12.89267,2.188133,0.01969379,1.000502,0.1988307,8.82389,-24.42379,-31.50518,1001.397
2.560777187,-2.594427,13.60989,1.089535,0.1065315,0.8810121,0.1141052,8.814184,-24.05447,-31.50531,1001.397
2.578437328,-1.185096,13.31105,2.249167,0.01828225,0.9579225,0.1906913,8.814184,-24.05447,-31.50531,1001.397
2.598620891,5.187531,14.32712,2.737432,-0.0586019,1.015942,0.08830947,8.814184,-24.05447,-31.50531,1001.397
2.618804932,5.616457,13.43059,0.4181699,-0.04172006,0.8965992,0.07959709,8.815594,-24.05315,-31.88171,1001.397
2.638988018,3.839475,11.15938,0.4792032,0.01467893,0.9362449,0.2214091,8.815594,-24.05315,-31.88171,1001.397
2.659171104,-3.023354,13.49036,1.638834,-0.007015494,0.8580889,0.1060328,9.125156,-24.05402,-31.88048,1001.397
2.679355144,-4.922886,16.59833,3.897063,-0.08063642,0.9629965,0.1174623,9.125156,-24.05402,-31.88048,1001.397
2.699538708,-1.368922,15.22365,5.178761,-0.003797206,1.027956,0.2290904,9.125156,-24.05402,-31.88048,1001.395
2.719721794,2.552694,16.23972,3.347765,0.04757707,0.9696713,0.124705,9.134862,-24.42334,-31.88035,1001.395
2.739905834,4.636053,14.02828,2.066067,0.1242127,1.091379,0.2301577,9.134862,-24.42334,-31.88035,1001.397
2.760088921,4.329677,14.86504,1.882967,0.03383945,0.9491645,0.11994,9.105745,-23.3154,-31.88073,1001.397
2.780272007,-0.8787199,14.38689,3.164665,0.0648471,0.936397,0.1833847,9.105745,-23.3154,-31.88073,1001.397
2.800456047,-3.513556,15.10411,2.1271,-0.02038349,1.043962,0.2026692,9.496633,-24.05507,-31.879,1001.397
2.820639610,-3.391005,14.92481,1.455735,-0.01577823,0.9836425,0.1357794,9.496633,-24.05507,-31.879,1001.395
2.840822697,0.5918863,13.72943,2.554333,0.055913,1.037225,0.1654433,9.496633,-24.05507,-31.879,1001.395
2.858483314,3.287997,12.35475,2.493299,0.02764135,1.10188,0.1507071,9.877813,-24.42544,-31.87739,1001.395
2.878666401,1.265914,12.05591,0.2961035,0.09284196,0.9360156,0.1171603,9.877813,-24.42544,-31.87739,1001.395
2.898850441,-1.246371,13.55013,0.4792032,0.03380394,0.9520465,0.1224301,10.23958,-24.05717,-31.87604,1001.393
2.919034004,-0.2659673,15.82134,2.005034,0.0319569,1.06512,0.1018011,10.23958,-24.05717,-31.87604,1001.393
2.939217091,2.552694,17.85348,2.493299,0.05912028,1.012802,0.09245378,10.23958,-24.05717,-31.87604,1001.395
2.959400177,1.388465,16.53856,1.211602,-0.003407285,0.9188468,0.09214583,10.99083,-24.42992,-31.49656,1001.395
2.979584217,1.265914,16.47879,0.7843693,-0.05591991,0.9927982,0.1296939,10.99083,-24.42992,-31.49656,1001.395
2.999767303,1.143364,14.68573,2.554333,-0.05456694,0.9619091,0.0706902,10.62077,-24.42754,-31.87443,1001.395
3.019950867,0.1629595,15.10411,3.164665,-0.007369182,0.967285,0.08775786,10.62077,-24.42754,-31.87443,1001.397
3.040134907,0.3467852,13.90874,3.591897,0.00500368,1.059291,0.1606023,10.62077,-24.42754,-31.87443,1001.397
3.060317993,1.817391,14.20758,2.737432,0.01938162,1.067666,0.1193871,10.62077,-24.42754,-31.87443,1001.398
3.080501080,1.204639,13.66966,2.3102,0.07499809,0.9366068,0.07973098,10.62077,-24.42754,-31.87443,1001.398
3.100685120,1.204639,13.72943,2.3102,0.05886066,1.03303,0.1531913,10.98254,-24.05928,-31.87308,1001.393
3.120868683,2.552694,13.60989,1.394701,0.03884111,1.014269,0.1095431,10.98254,-24.05928,-31.87308,1001.393
3.138529301,1.817391,11.15938,1.333668,0.03885831,0.9731357,0.1043497,10.98254,-24.05928,-31.87308,1001.395
3.158712387,-0.02086629,9.724926,1.394701,0.003067256,1.059612,0.1742359,11.35401,-24.06033,-31.8716,1001.395
3.178895474,-1.736573,8.230707,1.028502,-0.01763172,1.016892,0.1515244,11.35401,-24.06033,-31.8716,1001.4
3.199079514,-1.123821,7.154869,1.150569,0.004940789,0.9854659,0.1294595,11.35401,-24.06033,-31.8716,1001.4
3.219262600,0.6531615,6.377875,0.9674689,0.04475071,0.9645032,0.1041702,11.35401,-24.06033,-31.8716,1001.4
3.239446163,1.694841,7.513481,0.6012696,0.04703232,0.9751611,0.1077839,11.35401,-24.06033,-31.8716,1001.395
3.259630203,1.939942,9.964001,1.028502,0.003727801,1.006598,0.09776477,11.35566,-24.05878,-32.31073,1001.395
3.279813290,0.775712,11.63753,1.638834,-0.02925902,0.9823222,0.1021986,11.35566,-24.05878,-32.31073,1001.395
3.299996376,0.4693357,11.75706,1.821934,-0.02638588,0.9836009,0.1241161,11.73684,-24.42915,-32.30913,1001.395
3.320179939,-0.3885178,9.605389,1.394701,-0.01145764,0.9850054,0.1513709,11.73684,-24.42915,-32.30913,1001.395
3.340363979,-0.2046921,9.06747,1.028502,0.02626378,0.9769998,0.1355863,11.72549,-24.06138,-31.87012,1001.395
3.360547066,0.6531615,8.888164,1.089535,0.08216824,0.980823,0.1268213,11.72549,-24.06138,-31.87012,1001.393
3.380730152,0.8369873,9.007701,0.9064357,0.1026767,1.038816,0.1727049,11.72549,-24.06138,-31.87012,1001.393
3.398390770,1.204639,10.02377,-0.009062568,0.06685597,0.971047,0.1125393,12.78771,-24.43367,-31.86581,1001.393
3.418574810,-0.2659673,10.14331,0.6623029,0.01067889,0.9892867,0.1436377,12.78771,-24.43367,-31.86581,1001.393
3.438757897,-0.3272426,11.27891,1.211602,-0.04659796,1.019595,0.1287508,12.03505,-24.06225,-31.86889,1001.395
3.458941460,-0.2046921,10.26285,1.394701,-0.06766225,0.9671419,0.1097399,12.03505,-24.06225,-31.86889,1001.395
3.479124546,-0.3272426,7.931863,1.638834,-0.03746859,0.9425602,0.1418104,12.03505,-24.06225,-31.86889,1001.395
3.499308586,0.1016842,6.377875,1.333668,-0.01276787,1.013611,0.1475596,12.41482,-24.43394,-31.49089,1001.395
3.519491672,0.8369873,5.600881,1.150569,0.04341636,0.9553467,0.09717877,12.41482,-24.43394,-31.49089,1001.395
3.539675236,0.1629595,6.676719,1.028502,0.07229444,0.9598988,0.1210692,12.78771,-24.43367,-31.86581,1001.395
3.559859276,0.1629595,8.230707,1.028502,0.06654891,0.9960788,0.1286059,12.78771,-24.43367,-31.86581,1001.396
3.580042362,0.6531615,9.306544,1.272635,0.04396292,0.9896535,0.1075887,12.78771,-24.43367,-31.86581,1001.396
3.600225449,0.4693357,9.306544,0.9064357,-0.0006760472,0.9713099,0.1316205,12.7683,-23.69504,-31.86606,1001.396
3.620409489,0.4080605,8.170938,0.9674689,-0.03600927,0.9813321,0.1430622,12.7683,-23.69504,-31.86606,1001.396
3.640592575,0.9595378,7.214637,1.516768,-0.03801902,0.9881954,0.1320095,13.14948,-24.06541,-31.86446,1001.395
3.660776138,0.9595378,5.302037,1.577801,-0.03942719,0.984571,0.1533497,13.14948,-24.06541,-31.86446,1001.395
3.678436756,-0.2659673,4.2262,1.577801,-0.0103941,0.9767278,0.1570445,13.14948,-24.06541,-31.86446,1001.396
3.698619842,-1.062546,3.508975,1.577801,-4.342362E-05,0.9981871,0.1584272,12.77659,-24.06568,-31.48954,1001.396
3.718803883,-0.9399951,3.090593,1.333668,0.04852794,1.010147,0.1488609,12.77659,-24.06568,-31.48954,1001.396
3.738986969,0.3467852,3.449206,0.7843693,0.05512236,0.9838175,0.1264337,13.14807,-24.06673,-31.48806,1001.396
3.759170532,0.7144368,4.345737,0.4181699,0.0668956,0.9675359,0.1246344,13.14807,-24.06673,-31.48806,1001.396
3.779354095,1.511015,7.154869,0.4181699,0.09399571,0.9999447,0.1218299,13.14807,-24.06673,-31.48806,1001.396
3.799537659,2.001217,9.127238,0.9674689,0.02875515,1.010709,0.1114338,13.89243,-24.0675,-31.8615,1001.396
3.819720745,0.5918863,9.246776,0.6623029,-0.02650677,0.9929982,0.1534975,13.89243,-24.0675,-31.8615,1001.396
3.839904308,0.5918863,7.393943,0.6012696,-0.05188438,1.017135,0.1734759,13.14807,-24.06673,-31.48806,1001.398
3.860087872,0.530611,4.883656,1.211602,-0.02966422,0.9751092,0.1448761,13.14807,-24.06673,-31.48806,1001.398
3.880271435,-0.4497931,4.046893,1.211602,-0.003564167,0.9697624,0.1856052,13.89243,-24.0675,-31.8615,1001.398
3.900454521,-0.5723436,2.851518,0.9674689,0.03556751,1.00423,0.1886629,13.89243,-24.0675,-31.8615,1001.398
3.920638561,-1.185096,3.389437,1.150569,0.03300386,0.9771498,0.1793721,13.89243,-24.0675,-31.8615,1001.396
3.940821648,-1.736573,4.823887,1.272635,0.04329991,0.963172,0.1873523,13.52925,-24.4371,-31.48645,1001.396
3.958482265,-1.185096,4.70435,1.150569,0.03263552,1.006813,0.2169403,13.52925,-24.4371,-31.48645,1001.396
3.978665829,-1.185096,4.525043,0.6623029,0.02742917,0.9596902,0.1727091,13.51125,-23.69714,-31.86311,1001.396
3.998848915,-0.1434168,4.70435,0.4792032,0.0177869,1.038062,0.2195269,13.51125,-23.69714,-31.86311,1001.395
4.019032955,1.020813,5.122731,0.4181699,0.01341967,1.001923,0.1438838,13.51125,-23.69714,-31.86311,1001.395
4.039216042,0.3467852,6.676719,1.455735,0.01122584,1.022655,0.1997682,13.13007,-23.32678,-31.86471,1001.395
4.059399605,0.8982626,6.437644,1.821934,0.008289132,1.026786,0.1696859,13.13007,-23.32678,-31.86471,1001.395
4.079583168,0.3467852,5.003193,0.9674689,-0.001151611,0.8915925,0.1076605,13.89102,-24.06883,-31.4851,1001.39
4.099766731,-0.1434168,4.166431,0.8454025,0.04404446,1.020527,0.2191414,13.89102,-24.06883,-31.4851,1001.39
4.119949818,1.388465,4.70435,0.5402364,0.06471919,1.027415,0.1418801,13.89102,-24.06883,-31.4851,1001.389
4.140133858,-0.3885178,7.0951,0.9674689,0.03694603,0.9706049,0.1612331,13.89102,-24.06883,-31.4851,1001.389
4.160316944,-1.491472,9.426083,1.455735,0.02772787,0.9745819,0.1861413,13.89102,-24.06883,-31.4851,1001.395
4.180500507,-0.2659673,9.54562,1.882967,-0.02141262,1.049266,0.2037489,14.24308,-23.33125,-31.48388,1001.395
4.200683594,0.28551,9.366313,1.882967,-0.008171244,0.9922242,0.1612406,14.24308,-23.33125,-31.48388,1001.395
4.220867634,-1.123821,9.366313,1.516768,0.01500818,0.9497833,0.1759374,14.24308,-23.33125,-31.48388,1001.395
4.238528252,-2.1655,8.947932,1.638834,0.007666398,0.9581722,0.1984972,14.2639,-24.06856,-31.86002,1001.39
4.258711338,-0.6948941,9.724926,1.760901,0.01326995,0.9741387,0.1603646,14.2639,-24.06856,-31.86002,1001.39
4.278894901,-0.4497931,9.904232,1.699868,0.03832682,0.9758432,0.1725262,14.2542,-23.69924,-31.86015,1001.39
4.299078465,-1.797849,9.784695,1.699868,0.02931309,0.9627858,0.2053689,14.2542,-23.69924,-31.86015,1001.39
4.319262028,-1.430197,9.246776,1.516768,-0.01992282,1.006419,0.1780828,14.2542,-23.69924,-31.86015,1001.39
4.339445114,2.675245,7.931863,1.516768,-0.004012653,0.9290207,0.0913749,14.2542,-23.69924,-31.86015,1001.39
4.359628677,2.123768,8.051401,1.028502,0.09367879,0.9071644,0.09615138,14.2542,-23.69924,-31.86015,1001.39
4.379812241,2.430144,6.497412,1.211602,0.1044616,1.05118,0.1500775,14.62427,-23.70162,-31.48228,1001.39
4.399995804,-0.8787199,6.736487,1.211602,0.007824164,1.025297,0.1725766,14.62427,-23.70162,-31.48228,1001.39
4.420178890,-3.20718,7.393943,0.6623029,-0.04760172,1.022149,0.1628639,14.62427,-23.70162,-31.48228,1001.39
4.440362930,-2.288051,6.796256,1.089535,-0.06815935,1.007489,0.1446003,14.98909,-23.33049,-32.29645,1001.39
4.460546017,0.6531615,4.943425,1.150569,0.0007236294,0.9752012,0.132182,14.98909,-23.33049,-32.29645,1001.39
4.480729580,1.57229,3.150362,0.5402364,0.055703,0.9764467,0.08881977,14.98744,-23.33203,-31.85732,1001.39
4.498390198,-0.1434168,1.177993,1.516768,0.02439422,1.051474,0.1472813,14.98744,-23.33203,-31.85732,1001.388
4.518573284,-0.3885178,0.5803058,0.6012696,-0.05416403,0.927348,0.1361814,14.98744,-23.33203,-31.85732,1001.388
4.538757324,-3.084629,0.998687,0.4181699,-0.05080581,0.9694842,0.09419077,14.24449,-23.32993,-31.86028,1001.392
4.558940411,-2.1655,0.04238699,0.723336,0.04652065,1.056859,0.1259456,14.24449,-23.32993,-31.86028,1001.392
4.579123497,1.327189,-1.631138,-0.07009579,0.07863589,0.9949623,0.06385005,14.63538,-24.06961,-31.85854,1001.392
4.599307537,1.939942,-2.587438,-0.4362951,0.03070682,1.009709,0.06859155,14.63538,-24.06961,-31.85854,1001.392
4.619491100,1.878667,-0.7943756,-0.131129,0.06790396,1.004038,0.1097846,14.99715,-23.70134,-31.85719,1001.39
4.639674187,0.2242347,0.8791496,0.3571367,0.07015862,1.017316,0.09350009,14.99715,-23.70134,-31.85719,1001.39
4.659858227,-1.614023,1.536606,-0.07009579,0.03004969,0.9837157,0.09921961,14.99715,-23.70134,-31.85719,1001.39
4.680041313,-1.430197,1.417068,-0.2531955,-0.01071365,1.003638,0.1303287,14.99551,-23.70289,-31.41806,1001.39
4.700224876,0.9595378,1.476837,-0.07009579,-0.03013684,0.9749267,0.1137316,14.99551,-23.70289,-31.41806,1001.385
4.720407963,1.204639,1.118225,0.2350703,-0.04385556,0.9927197,0.1068051,14.9941,-23.70421,-31.04167,1001.385
4.740592003,1.327189,1.775681,0.3571367,0.007670245,1.038751,0.1348894,14.9941,-23.70421,-31.04167,1001.385
4.760775089,1.143364,3.628512,0.4792032,0.03727685,0.9446269,0.0940561,14.9941,-23.70421,-31.04167,1001.385
4.778435707,-0.5110683,6.079031,1.211602,0.00700731,1.013247,0.1650405,14.2625,-24.06988,-31.48363,1001.389
4.798618793,1.020813,6.796256,1.699868,0.0004583997,0.9969054,0.1418571,14.2625,-24.06988,-31.48363,1001.389
4.818802834,0.6531615,5.361806,1.577801,-0.00256423,0.9678618,0.1344745,14.98909,-23.33049,-32.29645,1001.389
4.838986397,-0.4497931,3.329669,0.8454025,0.006955946,1.017726,0.1529646,14.98909,-23.33049,-32.29645,1001.389
4.859169483,0.6531615,2.3136,1.089535,0.05418024,0.9808022,0.1847658,14.98909,-23.33049,-32.29645,1001.39
4.879352570,-0.08214154,2.79175,0.4181699,0.06557869,0.9946194,0.2254092,14.63538,-24.06961,-31.85854,1001.39
4.899536610,-0.3272426,4.2262,0.4792032,0.06581353,0.9752502,0.2245389,14.63538,-24.06961,-31.85854,1001.39
4.919720173,-0.8174446,7.035331,0.1740371,0.08155912,0.9491022,0.2463813,14.62427,-23.70162,-31.48228,1001.39
4.939903259,-1.920399,10.26285,0.7843693,0.03284238,0.9909483,0.1558027,14.62427,-23.70162,-31.48228,1001.389
4.960087299,1.57229,11.15938,1.150569,-0.01762984,0.9387246,0.06969054,14.62427,-23.70162,-31.48228,1001.389
4.980270386,1.265914,12.35475,1.272635,-0.02763738,1.006396,0.1688485,14.99879,-23.6998,-32.29632,1001.389
5.000453472,1.817391,8.410013,0.9674689,-0.01172856,1.125176,0.2344322,14.99879,-23.6998,-32.29632,1001.389
5.020637512,1.57229,6.318106,1.089535,0.02375018,1.140652,0.3393026,15.2956,-23.33423,-31.47969,1001.389
5.040821075,-1.368922,6.856025,1.211602,0.05431246,0.8524341,0.08393449,15.2956,-23.33423,-31.47969,1001.389
5.058481693,-3.574831,5.003193,0.1130039,0.07450834,0.9736845,0.2488245,15.2956,-23.33423,-31.47969,1001.389
5.078664780,-4.187583,4.644581,-0.8024944,0.07682046,0.9839561,0.1448949,15.30671,-23.70222,-31.85596,1001.389
5.098847866,-0.5110683,6.019262,-0.680428,0.05591005,0.9983044,0.1325583,15.30671,-23.70222,-31.85596,1001.389
5.119031906,3.287997,10.08354,0.4792032,0.02503018,1.041891,-0.00910366,15.29865,-23.33136,-32.29522,1001.389
5.139215469,4.697329,11.93637,1.150569,-0.05582621,1.064323,0.1486265,15.29865,-23.33136,-32.29522,1001.393
5.159398556,1.694841,9.665157,1.516768,-0.01273725,0.9716491,0.1282388,15.66707,-23.33528,-31.47821,1001.393
5.179582596,-0.6948941,8.350245,1.455735,-0.0608778,0.9245251,0.1176451,15.66707,-23.33528,-31.47821,1001.393
5.199765682,-0.9399951,8.350245,0.9674689,-0.03146126,0.9646518,0.1218022,15.66707,-23.33528,-31.47821,1001.393
5.219948769,-0.3885178,8.947932,1.455735,0.008819241,0.9833493,0.1532546,16.03855,-23.33633,-31.47674,1001.395
5.240132332,0.9595378,10.9203,1.638834,0.03137067,0.9937058,0.119852,16.03855,-23.33633,-31.47674,1001.395
5.260316372,0.6531615,11.99614,2.432266,0.007028539,1.012093,0.1348493,16.41143,-23.33606,-31.85165,1001.395
5.280499458,2.246318,9.964001,1.638834,-0.02476567,1.008526,0.1538022,16.41143,-23.33606,-31.85165,1001.395
5.300682545,2.552694,6.736487,0.8454025,0.02182928,0.9846416,0.1401233,16.41143,-23.33606,-31.85165,1001.395
5.318343163,1.44974,4.823887,0.4792032,0.0254095,1.007319,0.1551645,16.80232,-24.07574,-31.84992,1001.395
5.338527203,-0.2659673,3.688281,0.3571367,0.0110804,1.03487,0.1893052,16.80232,-24.07574,-31.84992,1001.393
5.358710766,-1.246371,2.134293,0.1130039,0.05378751,0.9340038,0.1638901,16.04967,-23.70432,-31.853,1001.393
5.378893852,-3.084629,3.329669,-0.1921622,0.08213147,0.942985,0.1800836,16.04967,-23.70432,-31.853,1001.393
5.399077892,-2.04295,4.883656,0.05197065,0.05874369,0.9624902,0.1814771,16.04967,-23.70432,-31.853,1001.393
5.419260979,-0.5110683,7.393943,-0.009062568,0.03550447,1.009683,0.1761197,16.41143,-23.33606,-31.85165,1001.393
5.439444065,1.44974,9.127238,0.2350703,-0.008593485,1.027126,0.1590125,16.41143,-23.33606,-31.85165,1001.393
5.459627628,1.44974,8.230707,0.1740371,-0.04102435,0.9963494,0.1847267,16.03996,-23.33501,-31.85313,1001.393
5.479811668,-0.08214154,6.437644,0.1740371,-0.02821998,0.974928,0.165307,16.03996,-23.33501,-31.85313,1001.393
5.499994755,-1.246371,5.361806,0.7843693,0.004500608,0.9811786,0.1702486,16.03996,-23.33501,-31.85313,1001.393
5.520177841,-1.797849,5.182499,0.6012696,0.007105512,1.004882,0.1780127,16.42114,-23.70537,-31.85152,1001.393
5.540361881,-1.368922,5.003193,0.8454025,0.004364951,0.9129721,0.1586805,16.42114,-23.70537,-31.85152,1001.393
5.560545444,-0.8787199,4.465274,1.455735,0.02232948,0.9426109,0.1772445,16.77341,-23.03067,-31.47388,1001.393
5.580728531,0.3467852,5.361806,1.638834,0.03420685,0.9977458,0.1564218,16.77341,-23.03067,-31.47388,1001.393
5.598389149,0.775712,3.688281,1.760901,0.003859499,0.9942151,0.1739136,16.77341,-23.03067,-31.47388,1001.391
5.618572235,1.756116,1.177993,0.6623029,0.0205025,0.9345269,0.1590835,16.41973,-23.7067,-31.47513,1001.391
5.638756275,2.307593,-1.332294,-0.009062568,0.03171637,1.043402,0.190417,16.41973,-23.7067,-31.47513,1001.391
5.658939361,2.491419,0.759612,-0.8024944,0.07177393,0.9635137,0.09778537,16.77986,-23.33998,-31.03465,1001.391
5.679122925,-0.1434168,4.166431,0.05197065,0.05947193,1.023344,0.1048266,16.77986,-23.33998,-31.03465,1001.389
5.699306965,-0.2046921,5.720418,0.5402364,0.02572101,0.9826536,0.1021245,16.77986,-23.33998,-31.03465,1001.389
5.719490051,0.4080605,5.780187,0.6012696,-0.02709586,0.9629333,0.106191,16.41973,-23.7067,-31.47513,1001.389
5.739673138,0.2242347,4.644581,-0.131129,-0.03905122,0.9942154,0.1097472,16.41973,-23.7067,-31.47513,1001.389
5.759857178,-0.2659673,5.361806,0.3571367,-0.01531423,0.9860215,0.09203303,17.53416,-23.70985,-31.47069,1001.389
5.780040264,-0.7561693,7.872094,1.272635,0.01215925,0.9872437,0.1075877,17.53416,-23.70985,-31.47069,1001.389
5.800223827,-0.1434168,9.605389,1.516768,0.008300131,0.9870803,0.118295,16.79121,-23.70775,-31.47365,1001.393
5.820406914,-0.5110683,10.02377,1.638834,0.009804755,0.9821954,0.1245217,16.79121,-23.70775,-31.47365,1001.393
5.840590954,-0.1434168,9.366313,1.516768,-0.0007237507,1.014769,0.1465917,16.79121,-23.70775,-31.47365,1001.393
5.860774040,-0.08214154,8.708858,1.821934,0.001191317,0.9759454,0.1555522,17.15298,-23.33949,-31.4723,1001.393
5.878434658,-1.123821,7.752556,1.638834,0.02070529,0.9976178,0.1491403,17.15298,-23.33949,-31.4723,1001.395
5.898618221,-1.859124,6.557181,1.272635,0.02851893,0.9893488,0.1640494,16.77986,-23.33998,-31.03465,1001.395
5.918802261,-2.533152,6.377875,0.723336,0.03703961,1.002473,0.1725686,16.77986,-23.33998,-31.03465,1001.395
5.938985348,-1.246371,6.198568,-0.009062568,0.04880836,0.9471447,0.1505331,16.77986,-23.33998,-31.03465,1001.395
5.959168434,0.5918863,7.513481,0.05197065,0.06961577,0.9020854,0.1325802,17.14325,-23.03327,-31.03328,1001.398
5.979351997,1.57229,9.54562,0.5402364,0.0425087,0.9890093,0.1703478,17.14325,-23.03327,-31.03328,1001.398
5.999535561,1.143364,10.38238,1.089535,-0.01624683,0.9818541,0.1688326,17.90563,-23.7109,-31.46921,1001.398
6.019719124,-0.5723436,9.127238,1.394701,-0.05984706,0.9183844,0.1520697,17.90563,-23.7109,-31.46921,1001.398
6.039902210,0.1016842,8.708858,2.066067,-0.06262902,0.9884226,0.1700039,17.90563,-23.7109,-31.46921,1001.398
6.060086250,1.694841,7.692787,1.821934,-0.03795562,0.9827709,0.1416338,18.27852,-23.71062,-31.84413,1001.398
6.080269337,1.756116,7.035331,1.455735,0.01915295,0.966668,0.1407447,18.27852,-23.71062,-31.84413,1001.4
6.100452900,1.633566,6.796256,1.882967,0.03778243,1.021008,0.1612563,17.88784,-23.03382,-31.46945,1001.4
6.120636940,2.307593,7.991632,0.9064357,0.08052326,0.9964038,0.1655724,17.88784,-23.03382,-31.46945,1001.404
6.140820026,-0.6336188,6.258337,0.7843693,0.04376389,0.8862576,0.1264658,17.88784,-23.03382,-31.46945,1001.404
6.158480644,-1.430197,6.796256,1.272635,0.04821879,1.034037,0.2310807,17.90563,-23.7109,-31.46921,1001.404
6.178663731,-1.552748,7.453712,0.9064357,0.05201379,0.960274,0.1994469,17.90563,-23.7109,-31.46921,1001.404
6.198847294,-1.614023,7.991632,0.2350703,0.05950318,0.9398487,0.1693498,17.8862,-23.03537,-31.03032,1001.404
6.219030857,1.143364,11.03984,-0.009062568,0.07372442,0.9208319,0.1538684,17.8862,-23.03537,-31.03032,1001.404
6.239214420,1.57229,12.8329,1.516768,-0.008135643,1.106348,0.2817398,17.8862,-23.03537,-31.03032,1001.404
6.259397507,0.2242347,13.96851,2.249167,-0.0688451,1.06133,0.284344,17.89429,-23.34313,-31.03021,1001.404
6.279581547,-1.797849,12.89267,2.432266,-0.06372538,0.9582185,0.2336372,17.89429,-23.34313,-31.03021,1001.406
6.299764633,-4.003758,10.80076,2.1271,-0.04779415,0.9173598,0.2245331,18.26576,-23.34418,-31.02873,1001.406
6.319948196,0.2242347,10.98007,1.821934,0.03182403,1.033881,0.2223431,18.26576,-23.34418,-31.02873,1001.407
6.340131283,5.187531,12.71336,1.699868,0.1116631,0.9345567,0.1458124,18.27382,-23.71504,-30.58947,1001.407
6.360315323,4.268402,15.52249,3.347765,0.07991324,1.085485,0.2208609,18.27382,-23.71504,-30.58947,1001.407
6.380498409,0.8982626,15.46273,1.944,0.02711152,1.064109,0.2453313,18.27382,-23.71504,-30.58947,1001.407
6.400681973,-0.2659673,16.06041,1.699868,0.0189048,0.8689075,0.0799332,18.2674,-23.34264,-31.46786,1001.407
6.418342590,0.3467852,20.4833,4.507396,0.01877382,1.154992,0.2539544,18.2674,-23.34264,-31.46786,1001.407
6.438526154,2.920346,21.37983,3.347765,-0.03965637,0.9647618,0.09846022,18.59638,-24.08214,-31.46637,1001.409
6.458709717,0.04040897,16.06041,3.164665,-0.01355551,0.9198359,0.1238084,18.59638,-24.08214,-31.46637,1001.409
6.478892803,-1.185096,15.46273,2.737432,0.006988243,1.014579,0.1772316,18.59638,-24.08214,-31.46637,1001.409
6.499076366,-1.062546,13.01221,1.882967,0.0520619,0.9187881,0.08330468,19.32634,-23.71802,-30.58528,1001.407
6.519259930,-1.062546,13.96851,3.103632,0.009963156,0.9294664,0.1161791,19.32634,-23.71802,-30.58528,1001.407
6.539443493,1.143364,15.64203,3.225698,0.01490435,1.118205,0.1466696,19.68811,-23.34975,-30.58393,1001.409
6.559626579,0.6531615,14.68573,1.760901,0.0333583,0.9482771,0.1598233,19.68811,-23.34975,-30.58393,1001.409
6.579810619,-2.288051,15.40296,2.066067,0.06210054,0.925222,0.1335357,19.68811,-23.34975,-30.58393,1001.409
6.599993706,-1.430197,18.45116,3.042598,0.02610852,0.9903429,0.1090883,18.58339,-23.71592,-30.58824,1001.409
6.620177269,2.062492,18.51093,3.286731,0.03813819,1.030921,0.1882142,18.58339,-23.71592,-30.58824,1001.409
6.640360832,4.329677,16.77764,2.859499,-0.04173083,0.8599423,-0.03498968,19.70916,-24.08684,-31.02281,1001.409
6.660544395,2.859071,10.56169,1.882967,-0.02823819,1.016946,0.1301312,19.70916,-24.08684,-31.02281,1001.409
6.680727482,1.204639,10.44215,0.4181699,0.08044466,1.043126,0.1446008,19.70916,-24.08684,-31.02281,1001.409
6.698388100,2.920346,12.35475,1.211602,0.07349548,1.020949,0.07410364,19.70588,-24.08993,-30.14455,1001.409
6.718571663,0.1629595,11.99614,1.211602,0.00866946,0.9574994,0.07245645,19.70588,-24.08993,-30.14455,1001.409
6.738755226,-1.430197,14.44666,1.699868,0.02003112,0.9740924,0.1262927,20.06764,-23.72166,-30.1432,1001.411
6.758938789,-1.614023,13.90874,1.882967,-0.005955986,0.9693854,0.122345,20.06764,-23.72166,-30.1432,1001.411
6.779121876,0.04040897,12.59383,1.760901,-0.04170954,0.9351758,0.09836427,20.06764,-23.72166,-30.1432,1001.409
6.799305916,2.246318,12.95244,2.249167,0.0106531,0.9523562,0.1054397,20.81083,-23.72355,-30.20297,1001.409
6.819489002,2.61397,12.95244,2.066067,0.01689788,1.073264,0.1375052,20.81083,-23.72355,-30.20297,1001.408
6.839672565,1.265914,11.39845,0.9674689,-0.008102979,0.8702043,0.006523926,20.80919,-23.72509,-29.76384,1001.408
6.859856129,-1.920399,11.99614,2.1271,0.0191891,1.003486,0.1414733,20.80919,-23.72509,-29.76384,1001.4
6.880039692,-0.3272426,12.95244,2.859499,0.03737218,1.014348,0.1971325,20.44883,-24.09203,-30.14159,1001.4
6.900222778,0.7144368,11.63753,1.516768,0.0383582,0.9339437,0.146881,20.44883,-24.09203,-30.14159,1001.4
6.920406342,-1.123821,10.74099,0.723336,0.05934624,0.9926984,0.1655302,20.44883,-24.09203,-30.14159,1001.4
6.940589905,-0.8787199,11.21914,0.6012696,0.09690771,1.036324,0.219863,20.42801,-23.35472,-29.76545,1001.398
6.960773468,0.2242347,13.72943,-0.009062568,0.1023961,1.021548,0.2035051,20.42801,-23.35472,-29.76545,1001.398
6.978434086,1.756116,15.10411,0.4792032,0.04128087,0.9712067,0.1558862,21.17096,-23.35683,-29.76249,1001.398
6.998617172,0.3467852,14.5662,1.211602,-0.01342282,1.027443,0.1687576,21.17096,-23.35683,-29.76249,1001.398
7.018801212,-1.307647,14.44666,0.4792032,0.009331099,0.9413121,0.1422036,21.17096,-23.35683,-29.76249,1001.398
7.038984299,-1.675298,13.43059,1.638834,-0.04227604,0.9814225,0.1245829,20.80919,-23.72509,-29.76384,1001.398
7.059167862,0.6531615,13.60989,1.821934,-0.03157306,1.013477,0.132987,20.80919,-23.72509,-29.76384,1001.398
7.079350948,2.368869,13.07198,1.028502,0.01299071,0.9202407,0.02500038,21.48052,-23.3577,-29.76126,1001.398
7.099534988,3.533098,11.15938,1.089535,0.007521076,1.011983,0.09786578,21.48052,-23.3577,-29.76126,1001.398
7.119718075,2.61397,11.57776,1.089535,0.06797314,0.9971526,0.1690118,21.48052,-23.3577,-29.76126,1001.398
7.139901638,0.7144368,13.31105,1.089535,0.08202078,0.9919019,0.1820251,21.17096,-23.35683,-29.76249,1001.4
7.160085201,-0.5723436,12.77313,0.5402364,0.03085115,0.9954638,0.1860634,21.17096,-23.35683,-29.76249,1001.4
7.180268765,-1.859124,11.63753,0.1740371,0.000498745,0.9528384,0.1881838,22.22347,-23.35981,-29.7583,1001.404
7.200451851,-1.00127,12.59383,0.8454025,-0.01803564,0.9701382,0.174929,22.22347,-23.35981,-29.7583,1001.404
7.220635891,0.775712,13.07198,0.9064357,-0.03168175,1.021944,0.1584572,22.22347,-23.35981,-29.7583,1001.404
7.240818977,1.756116,14.7455,1.272635,-0.004819055,0.9942166,0.1607885,22.97284,-23.73431,-28.87696,1001.404
7.258479595,1.511015,15.40296,1.821934,-0.0133604,0.9832615,0.1289561,22.97284,-23.73431,-28.87696,1001.4
7.278663158,0.2242347,16.41903,2.920532,-0.02524697,1.008596,0.146019,23.33461,-23.36604,-28.87561,1001.4
7.298846245,-1.307647,17.01671,2.920532,-0.03656868,0.987549,0.1504849,23.33461,-23.36604,-28.87561,1001.4
7.319030285,-2.962079,16.59833,3.225698,-0.003649054,0.9772882,0.1594786,23.33461,-23.36604,-28.87561,1001.4
7.339213371,-1.614023,17.85348,3.897063,0.01688354,0.9550802,0.1332199,21.84871,-23.36184,-28.88152,1001.4
7.359396458,1.020813,19.04885,3.408798,0.09121943,0.9901906,0.1240739,21.84871,-23.36184,-28.88152,1001.4
7.379580498,2.430144,19.88561,2.798466,0.1269193,0.9890403,0.1468683,22.95505,-23.05723,-28.87719,1001.402
7.399764061,1.817391,18.69024,2.371233,0.05212757,1.070195,0.2064881,22.95505,-23.05723,-28.87719,1001.402
7.419947147,0.28551,16.47879,1.333668,-0.041646,0.928794,0.1556551,22.95505,-23.05723,-28.87719,1001.408
7.440130234,-1.491472,17.07648,2.371233,-0.003104306,0.9717987,0.1763997,23.70468,-23.36842,-28.49773,1001.408
7.460314274,-1.614023,17.67417,2.981565,0.03151413,0.9813266,0.1468557,23.70468,-23.36842,-28.49773,1001.409
7.480497837,2.123768,19.70631,2.859499,0.02576372,1.018073,0.1461316,23.35261,-24.106,-28.49895,1001.409
7.500680923,4.207127,18.63047,1.150569,0.02781268,1.007665,0.1726849,23.35261,-24.106,-28.49895,1001.411
7.518341541,2.797795,16.17995,1.394701,0.01978596,1.032254,0.221842,23.35261,-24.106,-28.49895,1001.411
7.538525581,0.4080605,14.50643,1.638834,-0.03449005,0.9757151,0.1254317,24.09556,-24.1081,-28.49599,1001.411
7.558708668,-2.533152,13.90874,0.9674689,0.04824811,0.9542613,0.1161271,24.09556,-24.1081,-28.49599,1001.411
7.578891754,-2.410601,14.26735,1.944,0.09074959,0.8693607,0.1416332,24.09227,-24.11119,-27.61773,1001.411
7.599075317,0.7144368,17.73394,3.225698,0.03106899,0.9785679,0.131231,24.09227,-24.11119,-27.61773,1001.411
7.619259357,2.73652,17.85348,2.737432,-0.05845793,1.042281,0.1686308,24.07286,-23.37256,-27.61799,1001.411
7.639442444,0.530611,15.22365,1.699868,-0.07202087,1.007128,0.1752537,24.07286,-23.37256,-27.61799,1001.411
7.659625530,-1.552748,13.66966,1.821934,-0.0250473,0.9524912,0.1361497,24.07286,-23.37256,-27.61799,1001.411
7.679809570,-4.922886,14.20758,2.737432,0.013873,0.9250969,0.1228991,24.44598,-23.37207,-28.05564,1001.411
7.699993133,-1.552748,14.32712,3.897063,0.04306141,0.9435623,0.1611755,24.44598,-23.37207,-28.05564,1001.411
7.720176220,2.859071,13.60989,3.164665,0.07788419,0.975693,0.149109,24.09227,-24.11119,-27.61773,1001.409
7.740360260,3.349273,12.77313,2.249167,0.0397683,1.055696,0.1843228,24.09227,-24.11119,-27.61773,1001.409
7.760543346,1.204639,11.21914,0.3571367,0.009840963,0.9793714,0.1161938,24.09227,-24.11119,-27.61773,1001.411
7.780726433,-2.226775,11.75706,1.333668,0.1022,0.9590068,0.1579883,24.74417,-23.06827,-27.17626,1001.411
7.798387051,-0.4497931,13.49036,1.882967,0.06853045,0.9124404,0.1128367,24.74417,-23.06827,-27.17626,1001.411
7.818570614,2.797795,13.90874,1.638834,-0.03626604,0.9621504,0.1713916,24.75226,-23.37603,-27.17615,1001.411
7.838754654,2.981621,14.02828,1.394701,-0.00360211,0.9337668,0.1508318,24.75226,-23.37603,-27.17615,1001.413
7.858937740,-0.6948941,13.37082,2.432266,-0.06816059,1.046063,0.2125127,24.75226,-23.37603,-27.17615,1001.413
7.879120827,-2.471877,13.25128,3.103632,-0.06289059,0.9311374,0.1318899,25.11424,-23.07064,-26.79838,1001.411
7.899304867,-1.491472,12.71336,3.713964,-0.01022343,1.041042,0.2191405,25.11424,-23.07064,-26.79838,1001.411
7.919488430,2.368869,13.60989,3.591897,0.05491028,1.000219,0.1822295,24.76196,-23.74535,-27.17602,1001.411
7.939671516,2.859071,14.14781,3.042598,0.05254645,1.035985,0.1878067,24.76196,-23.74535,-27.17602,1001.411
7.959855556,0.1629595,13.01221,1.089535,0.0245762,1.035492,0.1956234,24.76196,-23.74535,-27.17602,1001.411
7.980038643,-2.778253,12.53406,0.9064357,0.07405181,0.8936021,0.1640339,25.13039,-23.74927,-26.35902,1001.411
8.000221729,-0.9399951,13.55013,2.737432,0.03566035,1.113389,0.3212284,25.13039,-23.74927,-26.35902,1001.411
8.020405293,1.44974,14.80527,1.577801,0.09337007,0.8527676,0.1086997,25.49216,-23.381,-26.35767,1001.411
8.040589333,2.062492,15.88111,0.8454025,0.01337954,0.9647766,0.1762365,25.49216,-23.381,-26.35767,1001.411
8.060772419,-2.655702,16.41903,1.577801,-0.04553064,1.048367,0.2582642,25.87498,-23.74982,-26.79519,1001.411
8.078433037,-0.3272426,18.09255,3.469831,-0.01606889,1.006153,0.2106732,25.87498,-23.74982,-26.79519,1001.407
8.098616123,-0.02086629,17.43509,4.202229,0.006429117,0.9811735,0.1736517,25.87498,-23.74982,-26.79519,1001.407
8.118800163,1.57229,16.6581,1.882967,0.001381491,1.039933,0.1529257,26.24317,-23.75396,-25.91545,1001.411
8.138983727,2.61397,15.46273,2.3102,0.05509271,0.9465684,0.1203441,26.24317,-23.75396,-25.91545,1001.411
8.159166813,1.082088,15.46273,2.554333,0.04738742,1.023696,0.1977894,26.60494,-23.3857,-25.9141,1001.413
8.179349899,-0.08214154,14.50643,2.920532,0.02361013,1.034376,0.2578858,26.60494,-23.3857,-25.9141,1001.413
8.199533939,-0.8174446,13.31105,1.028502,0.09626442,0.8935064,0.06035645,26.60494,-23.3857,-25.9141,1001.413
8.219717026,1.327189,14.38689,2.432266,0.04973441,1.067768,0.2521827,26.99418,-24.12692,-25.47324,1001.413
8.239900589,3.839475,17.19602,1.699868,-0.02476125,1.047568,0.174525,26.99418,-24.12692,-25.47324,1001.413
8.260084629,0.1016842,16.47879,0.3571367,-0.01826485,0.9512961,0.07140004,26.24012,-23.75683,-25.09992,1001.413
8.280267716,-2.471877,16.06041,1.028502,-0.01431086,0.9031733,0.0928248,26.24012,-23.75683,-25.09992,1001.409
8.300450802,-0.8174446,16.12018,4.385329,-0.02075124,0.8773833,0.09427019,26.24012,-23.75683,-25.09992,1001.409
8.320634842,3.226722,17.01671,3.958097,-0.04463976,1.017197,0.1291871,27.35454,-23.75998,-25.09549,1001.409
8.340818405,3.410548,16.17995,2.188133,0.07570524,1.036331,0.1386343,27.35454,-23.75998,-25.09549,1001.409
8.358478546,2.368869,11.75706,0.9674689,0.1023671,1.023998,0.2006342,27.35454,-23.75998,-25.09549,1001.407
8.378662109,0.4080605,11.21914,1.882967,0.07854987,1.119393,0.170929,27.35454,-23.75998,-25.09549,1001.407
8.398845196,-0.1434168,13.84897,2.005034,0.1048525,0.9808328,0.06207215,27.35454,-23.75998,-25.09549,1001.407
8.419029236,-1.614023,15.58226,2.554333,0.03464554,1.00288,0.0791555,27.3529,-23.76153,-24.65636,1001.407
8.439212322,-0.2046921,16.6581,2.249167,0.01962063,1.047673,0.1326154,27.3529,-23.76153,-24.65636,1001.407
8.459395886,-0.9399951,16.95694,1.577801,0.03609772,0.9230945,0.06492305,27.34484,-23.39067,-25.09562,1001.407
8.479579925,-2.900803,16.47879,2.432266,-0.06222841,0.9565793,0.1080631,27.34484,-23.39067,-25.09562,1001.405
8.499763012,1.265914,17.31556,2.371233,0.04786509,0.9856186,0.1293995,27.34484,-23.39067,-25.09562,1001.405
8.519946098,2.797795,14.38689,3.591897,0.005754162,0.998199,0.117059,27.35126,-23.76307,-24.21723,1001.405
8.540130138,2.368869,14.14781,1.516768,-0.03875851,1.087903,0.190428,27.35126,-23.76307,-24.21723,1001.405
8.560313225,2.185043,11.57776,1.577801,0.01677072,1.004791,0.1040355,27.6497,-23.39596,-23.83973,1001.405
8.580496788,-0.6948941,10.20308,1.150569,0.07586963,1.022774,0.1378791,27.6497,-23.39596,-23.83973,1001.405
8.600679874,-0.5723436,10.20308,0.9064357,0.04488895,0.9923083,0.1344021,27.6497,-23.39596,-23.83973,1001.405
8.618340492,1.204639,9.187007,0.5402364,0.009420679,1.013466,0.146551,27.65941,-23.76527,-23.8396,1001.405
8.638524532,1.57229,8.947932,-0.2531955,0.06405523,0.9631482,0.123092,27.65941,-23.76527,-23.8396,1001.405
8.658707619,-0.5723436,8.947932,-0.3752619,0.04354123,0.9839852,0.1410516,28.39265,-23.39806,-23.83677,1001.406
8.678891182,-1.797849,9.784695,0.6012696,-0.01765143,0.9785241,0.1604968,28.39265,-23.39806,-23.83677,1001.406
8.699075222,0.4693357,10.74099,0.9064357,-0.03039571,0.995218,0.1681447,28.39265,-23.39806,-23.83677,1001.405
8.719258308,2.73652,10.20308,0.723336,-0.008285387,1.00121,0.183315,28.7819,-24.13929,-23.3959,1001.405
8.739441395,1.694841,10.14331,1.028502,-0.001924686,0.9943416,0.1525148,28.7819,-24.13929,-23.3959,1001.405
8.759624958,0.530611,10.20308,0.9674689,0.01312165,1.025764,0.1823098,28.02924,-23.76787,-23.39899,1001.405
8.779808521,0.1016842,10.68123,1.577801,0.04622122,0.9626163,0.1012112,28.02924,-23.76787,-23.39899,1001.405
8.799992084,1.204639,11.6973,1.821934,0.02284437,0.9810853,0.1093965,28.40714,-24.14132,-22.51912,1001.405
8.820175171,1.817391,12.41452,1.272635,-0.001188441,0.9736568,0.1384799,28.40714,-24.14132,-22.51912,1001.405
8.840359211,-0.1434168,11.8766,2.3102,-0.003166161,1.056642,0.1712668,28.40714,-24.14132,-22.51912,1001.405
8.860542297,-2.349326,11.8766,2.1271,0.0005793783,0.9865457,0.1606288,28.78025,-24.14083,-22.95677,1001.407
8.880725861,-2.962079,12.23521,2.3102,0.0285008,0.9907585,0.1684566,28.78025,-24.14083,-22.95677,1001.407
8.898386478,-0.2659673,12.05591,2.188133,0.05170929,0.9855181,0.1941079,28.40072,-23.76892,-23.39751,1001.405
8.918569565,2.123768,11.33868,0.7843693,0.03954872,0.9941251,0.1874839,28.40072,-23.76892,-23.39751,1001.405
8.938753605,1.511015,9.904232,0.2350703,0.05272586,1.021729,0.1597888,28.40072,-23.76892,-23.39751,1001.403
8.958936691,0.3467852,9.485851,0.723336,0.03258658,0.9728158,0.1272222,29.14038,-23.77411,-22.51629,1001.403
8.979120255,-1.368922,10.02377,0.5402364,0.05296017,0.923995,0.09703085,29.14038,-23.77411,-22.51629,1001.403
8.999303818,0.2242347,9.007701,0.2961035,0.03136938,0.9539529,0.1219848,28.39743,-23.77201,-22.51925,1001.403
9.019487381,1.817391,8.230707,0.05197065,0.02901892,0.9888844,0.113921,28.39743,-23.77201,-22.51925,1001.403
9.039670467,-0.02086629,7.035331,-0.1921622,-0.02054875,0.9008034,0.07818945,28.39743,-23.77201,-22.51925,1001.403
9.059854507,-0.3885178,8.170938,0.7843693,-0.04673142,0.990247,0.1563922,28.38631,-23.40402,-22.14298,1001.403
9.080037594,0.28551,7.393943,1.821934,-0.05648779,1.078576,0.1761584,28.38631,-23.40402,-22.14298,1001.403
9.100221157,0.04040897,8.230707,1.882967,-0.005632695,0.9824315,0.1264954,29.12926,-23.40612,-22.14002,1001.402
9.120404243,1.143364,7.692787,1.455735,-0.009053223,0.9467784,0.1009789,29.12926,-23.40612,-22.14002,1001.402
9.140588284,1.633566,7.274406,1.944,-0.00584319,1.03861,0.177726,29.12926,-23.40612,-22.14002,1001.406
9.160771370,-0.1434168,7.872094,1.211602,0.02155526,0.9282672,0.1078664,28.7772,-24.1437,-22.14125,1001.406
9.178431988,-1.675298,8.230707,1.455735,0.002116441,0.979495,0.1410235,28.7772,-24.1437,-22.14125,1001.404
9.198615551,-0.6948941,8.469782,1.150569,0.01888027,0.9887261,0.1635646,29.50074,-23.40717,-22.13855,1001.404
9.218799114,1.633566,10.32261,1.638834,0.0616612,1.000295,0.184654,29.50074,-23.40717,-22.13855,1001.404
9.238982678,1.939942,11.63753,1.211602,0.05766918,0.9717993,0.1694983,29.50074,-23.40717,-22.13855,1001.404
9.259165764,-1.123821,12.35475,1.760901,0.01710087,1.015495,0.1976715,29.51851,-24.14735,-21.69916,1001.404
9.279349804,-1.185096,13.49036,1.455735,-0.005097144,0.977151,0.1711561,29.51851,-24.14735,-21.69916,1001.404
9.299532890,-0.7561693,13.84897,1.577801,0.02063529,0.9628501,0.1859195,29.89163,-24.14685,-22.13681,1001.404
9.319716454,1.143364,12.8329,1.760901,-0.003373312,0.9545141,0.1600007,29.89163,-24.14685,-22.13681,1001.404
9.339899540,1.817391,13.31105,1.577801,0.003553614,1.098637,0.1973906,30.25175,-23.78013,-21.69633,1001.404
9.360083580,0.775712,11.81683,1.455735,-0.005360994,0.9196775,0.1520153,30.25175,-23.78013,-21.69633,1001.404
9.380266667,-1.430197,12.23521,1.272635,0.02487879,0.971414,0.1593205,30.25175,-23.78013,-21.69633,1001.404
9.400450230,-0.6336188,11.51799,1.455735,0.03070861,0.9682735,0.1427058,29.13733,-23.77698,-21.70077,1001.404
9.420633793,2.859071,11.6973,1.577801,0.09213205,0.9549995,0.1073187,29.13733,-23.77698,-21.70077,1001.402
9.440817356,2.981621,12.05591,1.211602,0.02257692,1.002606,0.1375582,30.25011,-23.78168,-21.2572,1001.402
9.458477974,1.878667,12.71336,0.9674689,-0.01760563,1.053846,0.18729,30.25011,-23.78168,-21.2572,1001.402
9.478661060,0.28551,11.6973,1.455735,-0.02184891,1.085915,0.1718736,30.25011,-23.78168,-21.2572,1001.402
9.498844623,-0.2046921,10.98007,1.089535,-0.004322735,0.9547734,0.08361307,30.61853,-23.7856,-20.44019,1001.402
9.519028187,-1.614023,9.904232,1.394701,0.02373099,1.025945,0.1798649,30.61853,-23.7856,-20.44019,1001.402
9.539211750,0.8982626,12.77313,2.005034,0.01005904,1.000202,0.165751,30.60883,-23.41628,-20.44032,1001.408
9.559394836,0.5918863,12.41452,1.821934,-0.01724893,0.8675468,0.06536175,30.60883,-23.41628,-20.44032,1001.408
9.579578876,1.143364,11.09961,2.066067,-0.04899345,1.016975,0.1939051,30.60883,-23.41628,-20.44032,1001.409
9.599761963,0.9595378,11.27891,2.371233,-0.008110029,1.027235,0.1487956,30.6363,-24.52577,-20.00081,1001.409
9.619945526,-1.062546,11.39845,2.066067,0.03973885,0.9797861,0.1190777,30.6363,-24.52577,-20.00081,1001.409
9.640129089,-1.246371,12.11568,1.516768,0.05222803,1.022372,0.191917,30.25676,-24.15386,-20.44154,1001.409
9.660312653,-1.614023,11.99614,1.516768,0.02177716,0.9087983,0.1658712,30.25676,-24.15386,-20.44154,1001.409
9.680495739,-1.920399,12.05591,2.066067,0.03230549,0.9941787,0.2200969,30.25676,-24.15386,-20.44154,1001.409
9.700679302,0.8369873,13.01221,2.493299,0.04209556,0.9830788,0.1814225,30.60554,-23.41937,-19.56206,1001.409
9.720862865,1.388465,11.99614,1.699868,0.03086666,0.9155155,0.1372822,30.60554,-23.41937,-19.56206,1001.409
9.738523483,2.491419,13.55013,1.211602,0.02037821,0.9842581,0.1766118,31.29628,-23.79062,-19.55922,1001.409
9.758707046,2.859071,11.81683,0.9674689,-0.01212468,0.9214552,0.1092408,31.29628,-23.79062,-19.55922,1001.409
9.778890133,0.04040897,11.51799,2.493299,-0.01032612,1.088681,0.2521982,31.29628,-23.79062,-19.55922,1001.409
9.799074173,0.7144368,11.09961,2.676399,-0.06850726,1.075578,0.1673582,30.62495,-24.158,-19.56181,1001.409
9.819257259,-0.6336188,8.888164,2.676399,0.005076728,1.01405,0.130025,30.62495,-24.158,-19.56181,1001.409
9.839440823,-0.5110683,8.230707,1.333668,0.06597189,0.8857806,0.06122118,30.6136,-23.79023,-19.1228,1001.409
9.859624386,-0.5723436,7.57325,2.371233,0.04937386,0.9810765,0.1010854,30.6136,-23.79023,-19.1228,1001.409
9.879807949,-0.08214154,9.246776,2.798466,0.009039232,1.044953,0.1466882,31.28493,-23.42284,-19.12022,1001.409
9.899991035,1.143364,9.784695,1.577801,0.03513786,0.9621363,0.08418745,31.28493,-23.42284,-19.12022,1001.409
9.920174599,0.3467852,8.589319,1.150569,0.02510527,0.9532934,0.1302529,31.28493,-23.42284,-19.12022,1001.409
9.940358162,-0.02086629,8.410013,1.089535,0.02869594,0.9352488,0.1474076,31.31429,-24.53057,-19.18257,1001.409
9.960541725,0.5918863,7.513481,1.455735,0.02802102,0.990954,0.1480245,31.31429,-24.53057,-19.18257,1001.409
9.980724812,1.633566,6.856025,0.723336,0.0788443,1.015964,0.1450388,30.93146,-24.16175,-18.74505,1001.409
9.998385429,2.491419,5.780187,0.1130039,0.04695159,1.020737,0.1534521,30.93146,-24.16175,-18.74505,1001.409
10.018569469,0.7144368,5.302037,-0.131129,0.004267705,1.000707,0.1550646,30.93146,-24.16175,-18.74505,1001.409
10.038752556,-1.797849,4.465274,0.1740371,-0.02033008,0.9216827,0.1228818,31.28352,-23.42417,-18.74382,1001.408
10.058936119,-0.4497931,4.106662,0.8454025,-0.04613772,1.020693,0.1652659,31.28352,-23.42417,-18.74382,1001.408
10.079119205,2.920346,3.927356,0.723336,0.01826424,1.000928,0.10493,31.311,-24.53366,-18.30431,1001.408
10.099303246,2.61397,3.329669,-0.009062568,0.04367172,0.9347659,0.07195514,31.311,-24.53366,-18.30431,1001.408
10.119486332,1.143364,4.405506,-0.3752619,0.06122601,0.9973903,0.1349653,31.311,-24.53366,-18.30431,1001.408
10.139669895,-1.368922,4.764118,-0.07009579,0.02144322,1.015748,0.1786932,31.30129,-24.16434,-18.30444,1001.408
10.159853458,-1.981674,6.258337,1.089535,0.001257699,1.010414,0.1489355,31.30129,-24.16434,-18.30444,1001.408
10.180037022,-1.614023,6.019262,0.7843693,-0.01627824,0.9850738,0.1372683,31.67277,-24.16539,-18.30296,1001.408
10.200220108,0.7144368,5.062962,0.3571367,-0.008067552,0.9843137,0.1284826,31.67277,-24.16539,-18.30296,1001.409
10.220404148,2.307593,3.568743,-0.3752619,0.004649873,1.048571,0.1662297,31.67277,-24.16539,-18.30296,1001.409
10.240587235,0.4693357,2.552675,-0.131129,0.03326088,1.035998,0.1576669,31.311,-24.53366,-18.30431,1001.408
10.260770798,-0.7561693,2.672212,0.05197065,0.02403989,0.9623885,0.09102095,31.311,-24.53366,-18.30431,1001.408
10.278431416,-2.900803,3.628512,0.4181699,0.003946924,0.9878687,0.1299951,31.30935,-24.5352,-17.86518,1001.409
10.298614502,-1.00127,4.405506,0.9064357,0.01309939,0.9881558,0.1635618,31.30935,-24.5352,-17.86518,1001.409
10.318798542,0.5918863,3.74805,0.2961035,0.001667005,0.9773509,0.1122731,31.30935,-24.5352,-17.86518,1001.409
10.338981628,2.001217,1.895218,-0.009062568,0.008531877,1.007102,0.1517788,31.68083,-24.53625,-17.8637,1001.409
10.359164715,0.5918863,0.281462,0.2350703,-0.009239695,1.080357,0.1649328,31.68083,-24.53625,-17.8637,1001.409
10.379348755,-0.4497931,-0.4357631,0.1740371,0.01845657,1.023508,0.1734988,30.91846,-23.79552,-17.86691,1001.409
10.399532318,-0.5723436,-1.332294,-0.07009579,0.0107698,0.982258,0.1196557,30.91846,-23.79552,-17.86691,1001.408
10.419715405,-0.6336188,-2.288594,-0.1921622,0.03669785,0.9521329,0.1180483,30.91846,-23.79552,-17.86691,1001.408
10.439899445,-0.5723436,-1.929982,-0.8024944,0.04224819,0.9714576,0.132047,30.93788,-24.53415,-17.86666,1001.409
10.460082531,0.28551,-1.272526,-0.9245608,0.03743253,0.9709645,0.1257187,30.93788,-24.53415,-17.86666,1001.409
10.480266094,0.3467852,-0.4357631,-0.5583615,0.01991633,0.9830247,0.1537185,31.66306,-23.79608,-18.30309,1001.409
10.500449180,0.775712,0.8791496,-0.9855941,0.03100859,0.8256566,0.06202891,31.66306,-23.79608,-18.30309,1001.409
10.520633221,0.530611,1.058456,-0.3142287,-0.04843072,1.011033,0.1587525,31.68083,-24.53625,-17.8637,1001.409
10.540816307,0.5918863,0.8791496,-0.07009579,-0.03421298,0.9917268,0.1724605,31.68083,-24.53625,-17.8637,1001.409
10.558476925,-1.552748,0.281462,0.1130039,-0.0306667,0.9777694,0.1682864,31.68083,-24.53625,-17.8637,1001.409
10.578660011,-2.533152,-0.01738177,0.4181699,0.001931388,0.9546073,0.158535,32.04424,-24.16644,-18.30148,1001.409
10.598844051,-1.185096,0.9389183,0.3571367,0.03635699,0.9792195,0.1711362,32.04424,-24.16644,-18.30148,1001.412
10.619027615,0.8369873,1.954987,0.3571367,0.02961466,1.017561,0.2035331,31.67277,-24.16539,-18.30296,1001.412
10.639210701,1.694841,2.194062,0.7843693,0.02374074,1.024813,0.1963864,31.67277,-24.16539,-18.30296,1001.413
10.659393787,1.44974,2.731981,0.2961035,0.0007335678,1.01373,0.1558141,31.67277,-24.16539,-18.30296,1001.413
10.679577827,0.2242347,1.895218,0.05197065,0.00120677,0.8959923,0.1072575,32.03289,-23.79867,-17.86248,1001.412
10.699761391,-1.00127,1.297531,0.05197065,0.0278008,0.9293305,0.156537,32.03289,-23.79867,-17.86248,1001.412
10.719944477,-0.3272426,0.6400745,0.5402364,0.01334113,1.046711,0.2201912,32.02483,-23.42781,-18.30174,1001.412
10.740128517,0.3467852,0.6400745,0.1130039,0.01730934,0.9204725,0.105772,32.02483,-23.42781,-18.30174,1001.412
10.760311603,0.2242347,0.6400745,-0.5583615,0.009618939,0.9572449,0.1483576,32.02483,-23.42781,-18.30174,1001.413
10.780494690,-0.8787199,-0.7346069,-0.131129,-0.0003850706,1.026178,0.1692,31.29965,-24.16589,-17.8653,1001.413
10.800678730,0.1629595,-0.7943756,-0.6193948,0.02103068,0.971191,0.127207,31.29965,-24.16589,-17.8653,1001.41
10.818338871,-0.5110683,-0.8541443,-0.009062568,0.0210893,1.044664,0.1938637,31.68247,-24.53471,-18.30283,1001.41
10.838522911,-1.675298,-0.9139131,0.4792032,-0.01457377,0.9637453,0.1407363,31.68247,-24.53471,-18.30283,1001.41
10.858705997,-1.185096,-1.093219,-0.8635277,-0.009443587,0.9388527,0.1178531,31.68247,-24.53471,-18.30283,1001.41
10.878889084,-1.675298,-1.332294,-0.680428,-0.007249464,1.034173,0.232138,32.40601,-23.79818,-18.30013,1001.41
10.899073124,-1.736573,-1.690907,-0.4973283,0.00261516,0.9383107,0.1416675,32.40601,-23.79818,-18.30013,1001.41
10.919256687,-0.6948941,-2.04952,-0.8635277,0.03460138,0.9654005,0.1450762,32.03289,-23.79867,-17.86248,1001.41
10.939439774,1.143364,-2.886282,-1.47386,0.01523867,0.9706706,0.170998,32.03289,-23.79867,-17.86248,1001.41
10.959623814,1.511015,-3.364432,-0.9245608,0.01523594,1.049737,0.2110032,32.03289,-23.79867,-17.86248,1001.41
10.979806900,1.511015,-3.125357,-0.8635277,-0.01031842,0.9713502,0.1131452,32.05395,-24.53576,-18.30135,1001.41
10.999989986,-1.368922,-2.946051,-0.2531955,-0.02347368,0.9426454,0.1052976,32.05395,-24.53576,-18.30135,1001.41
11.020173550,-0.02086629,-2.826513,0.5402364,-0.01911143,1.018988,0.182223,32.03618,-23.79558,-18.74074,1001.41
11.040357590,1.265914,-3.782813,0.6012696,-0.03502173,0.9407004,0.08873206,32.03618,-23.79558,-18.74074,1001.41
11.060540676,1.44974,-5.336801,-0.4973283,-0.001027708,0.9994423,0.1769438,32.03618,-23.79558,-18.74074,1001.41
11.080723763,-0.6948941,-6.173564,-0.7414612,0.02874296,0.9710255,0.1554144,32.03618,-23.79558,-18.74074,1001.41
11.098384380,-0.9399951,-5.814951,-0.2531955,0.03472529,0.994929,0.1480933,32.03618,-23.79558,-18.74074,1001.41
11.118568420,-0.5110683,-5.097726,0.1130039,0.01460878,0.9043736,0.1127562,32.02647,-23.42627,-18.74087,1001.41
11.138751507,0.4693357,-4.978189,-0.8635277,0.02740601,1.080592,0.1960252,32.02647,-23.42627,-18.74087,1001.412
11.158935070,-0.08214154,-5.217264,-1.412827,0.02835935,1.002334,0.1735518,31.28352,-23.42417,-18.74382,1001.412
11.179118156,0.9595378,-4.380501,-1.046627,0.02632415,1.010971,0.1790781,31.28352,-23.42417,-18.74382,1001.412
11.199302197,0.8982626,-3.364432,-0.8635277,0.03280938,0.9543911,0.1288036,31.28352,-23.42417,-18.74382,1001.412
11.219485283,0.3467852,-2.826513,-0.680428,0.01752043,0.9823099,0.1245127,32.02647,-23.42627,-18.74087,1001.412
11.239668846,-0.2046921,-1.631138,-0.1921622,-0.0009593688,1.033103,0.2029124,32.02647,-23.42627,-18.74087,1001.412
11.259852886,-0.5723436,-0.7346069,-0.6193948,-0.02058602,0.9422153,0.1529703,32.41736,-24.16595,-18.73913,1001.412
11.280035973,-0.5110683,-1.272526,-0.3142287,-0.05305441,0.9151231,0.1490757,32.41736,-24.16595,-18.73913,1001.412
11.300219059,-0.2659673,-2.587438,-0.3752619,-0.01314358,0.9653115,0.1315201,32.41736,-24.16595,-18.73913,1001.41
11.320403099,1.265914,-3.244895,0.1130039,0.02523633,0.9824437,0.1225577,31.67582,-24.16252,-19.11848,1001.41
11.340586186,1.204639,-2.886282,-0.680428,0.06197355,0.9747312,0.1734427,31.67582,-24.16252,-19.11848,1001.41
11.360769749,-0.3885178,-2.826513,0.5402364,-0.002083,1.046108,0.2090105,32.04753,-24.16335,-19.17974,1001.41
11.378430367,0.2242347,-1.511601,0.3571367,-0.01355632,0.959415,0.1391894,32.04753,-24.16335,-19.17974,1001.412
11.398613453,-0.5110683,-1.451832,-0.009062568,-0.006400265,0.9270524,0.09085286,32.04753,-24.16335,-19.17974,1001.412
11.418797493,-0.9399951,-3.543738,-0.2531955,-0.007576501,1.101079,0.2276236,32.41736,-24.16595,-18.73913,1001.412
11.438980579,-1.614023,-4.260964,-1.412827,0.02219538,0.9151486,0.1124717,32.41736,-24.16595,-18.73913,1001.412
11.459164143,-1.614023,-4.021889,-0.5583615,0.006926743,0.9012226,0.1258429,31.66471,-23.79453,-18.74222,1001.413
11.479348183,0.04040897,-3.842582,-1.10766,0.03769576,0.9094496,0.1240142,31.66471,-23.79453,-18.74222,1001.413
11.499531269,1.633566,-4.739114,-1.046627,0.04534558,0.9931071,0.2010797,31.66471,-23.79453,-18.74222,1001.415
11.519714355,0.6531615,-5.336801,-0.8024944,-0.00117763,0.8942894,0.07997845,32.78219,-23.79482,-19.55331,1001.415
11.539898395,0.1016842,-4.798882,-0.07009579,-0.008447989,0.9752696,0.1604189,32.78219,-23.79482,-19.55331,1001.415
11.560081482,-2.104225,-5.994257,-0.009062568,-0.03070391,0.9428036,0.07854902,32.42707,-24.53526,-18.739,1001.415
11.580265045,-1.185096,-6.412639,0.9064357,-0.05615355,0.9716502,0.1609039,32.42707,-24.53526,-18.739,1001.415
11.600448131,2.981621,-7.667782,0.6012696,-0.003146173,0.897772,0.06788559,32.42707,-24.53526,-18.739,1001.415
11.620632172,-0.1434168,-8.624082,-0.009062568,-0.009297091,1.123014,0.2606615,32.40907,-23.79531,-19.11566,1001.417
11.638292789,-3.452281,-9.401075,-1.779026,0.0191121,1.088046,0.2137021,32.40907,-23.79531,-19.11566,1001.417
11.658475876,-1.123821,-12.50905,-2.084192,0.04098234,0.8383614,0.06615841,31.65805,-23.42235,-19.55787,1001.417
11.678659439,1.204639,-12.50905,-2.572458,0.08868793,0.9212742,0.08281354,31.65805,-23.42235,-19.55787,1001.417
11.698843479,3.226722,-12.62859,-1.656959,0.07889266,1.090526,0.1995524,31.65805,-23.42235,-19.55787,1001.417
11.719026565,-0.9399951,-11.85159,-3.121757,0.006999875,1.053247,0.1867554,32.04088,-23.79117,-19.9954,1001.417
11.739209652,-1.062546,-11.13437,-0.6193948,0.08979417,0.9880628,0.1410644,32.04088,-23.79117,-19.9954,1001.417
11.759393215,-0.6948941,-8.982695,-1.168694,-0.005715109,0.9495463,0.1200057,31.65641,-23.42389,-19.11874,1001.417
11.779576778,-0.5110683,-8.205701,-0.4362951,-0.01811828,0.9768805,0.1789553,31.65641,-23.42389,-19.11874,1001.417
11.799760342,-1.368922,-7.488476,-1.351793,-0.02971245,1.018525,0.1642257,32.04729,-24.16357,-19.11701,1001.417
11.819943428,-1.797849,-6.233333,-1.168694,-0.01563458,0.932603,0.1036275,32.04729,-24.16357,-19.11701,1001.417
11.840127468,-2.349326,-5.87472,-1.29076,-0.00576836,0.9925465,0.1811935,32.04729,-24.16357,-19.11701,1001.417
11.860310554,-1.185096,-6.472408,-1.046627,0.04280577,0.8857976,0.1225654,32.02953,-23.4234,-19.55639,1001.413
11.880494118,2.246318,-5.994257,-1.046627,0.02936799,0.9992143,0.1476994,32.02953,-23.4234,-19.55639,1001.413
11.900678158,2.552694,-4.559807,-1.412827,-0.003327721,0.9911421,0.1310437,32.03923,-23.79271,-19.55626,1001.413
11.918337822,0.4080605,-4.91842,-1.168694,0.002239956,1.166605,0.2308524,32.03923,-23.79271,-19.55626,1001.413
11.938521862,0.5918863,-6.113795,-0.8024944,0.003114617,0.9378029,0.09591753,32.03923,-23.79271,-19.55626,1001.413
11.958704948,-1.307647,-7.368939,-2.267292,0.006663481,0.9637046,0.07890783,32.04894,-24.16203,-19.55614,1001.413
11.978888512,-0.8174446,-7.249402,-2.023159,0.01032456,1.056844,0.2199096,32.04894,-24.16203,-19.55614,1001.413
11.999072075,-0.7561693,-5.516108,-1.351793,-0.0001025554,1.003964,0.1132891,32.04894,-24.16203,-19.55614,1001.415
12.019255638,-1.00127,-4.978189,-0.4362951,-0.01037443,0.9764156,0.09086251,32.04894,-24.16203,-19.55614,1001.415
12.039438725,-0.5110683,-4.380501,-1.10766,-0.006646007,0.9871046,0.09350151,32.04894,-24.16203,-19.55614,1001.415
12.059622765,1.57229,-3.842582,-1.229727,0.001385402,0.9222879,0.04549457,32.414,-23.79068,-20.43305,1001.415
12.079805851,2.491419,-2.766745,-0.8024944,0.005579083,0.9344901,0.0428104,32.414,-23.79068,-20.43305,1001.413
12.099989414,0.04040897,-2.706976,0.2961035,-0.02100839,1.057368,0.1202157,32.41071,-23.79377,-19.55479,1001.413
12.120172501,-1.062546,-2.52767,-0.07009579,-0.01741416,1.039618,0.1076945,32.41071,-23.79377,-19.55479,1001.413
12.140356541,-1.920399,-3.723045,-0.4362951,-0.01692346,0.9600648,0.0686521,32.41071,-23.79377,-19.55479,1001.413
12.160539627,-0.4497931,-6.173564,-1.656959,0.01776851,0.9620975,0.1109744,32.03117,-23.42186,-19.99553,1001.413
12.180723190,1.020813,-7.488476,-1.351793,0.04170526,1.016744,0.1086147,32.03117,-23.42186,-19.99553,1001.413
12.198383808,0.4080605,-7.189633,-1.717993,0.05525193,0.9741675,0.07369113,32.41235,-23.79222,-19.99392,1001.413
12.218567371,0.1629595,-6.35287,-2.084192,0.06801681,0.9552997,0.08984292,32.41235,-23.79222,-19.99392,1001.413
12.238750935,0.4693357,-4.201195,-1.595926,0.02250372,1.009158,0.1118989,32.41235,-23.79222,-19.99392,1001.414
12.258934021,-0.5723436,-2.467901,-0.3752619,-0.04807441,0.982315,0.1236359,32.41235,-23.79222,-19.99392,1001.414
12.279117584,-0.5723436,-1.033451,-0.131129,-0.03959895,0.9994588,0.1176371,32.41235,-23.79222,-19.99392,1001.409
12.299301148,-0.4497931,-1.810444,-0.1921622,-0.04589966,0.9629148,0.07994254,32.4237,-24.15999,-20.43292,1001.409
12.319484711,-0.5110683,-3.304663,-0.1921622,-0.03821682,1.004808,0.117741,32.4237,-24.15999,-20.43292,1001.41
12.339667797,-0.08214154,-4.619576,-0.5583615,-0.007661148,1.030303,0.1332849,32.42511,-24.15866,-20.80932,1001.41
12.359851837,-0.2046921,-6.113795,-0.6193948,0.02957509,0.9833691,0.08461584,32.42511,-24.15866,-20.80932,1001.41
12.380034924,-0.6948941,-7.070095,-0.8024944,0.03349701,0.9780597,0.08839771,32.42511,-24.15866,-20.80932,1001.41
12.400218487,-0.02086629,-7.189633,-1.10766,0.04633001,0.9928334,0.1324641,32.03117,-23.42186,-19.99553,1001.412
12.420402050,0.775712,-5.994257,-1.229727,0.02708407,0.9893354,0.1144194,32.03117,-23.42186,-19.99553,1001.412
12.440585613,0.2242347,-4.679345,-1.10766,-0.001803504,0.9849684,0.120701,32.05223,-24.15894,-20.4344,1001.412
12.460768700,-0.2046921,-3.603507,-0.8024944,0.003799783,0.9999436,0.1336404,32.05223,-24.15894,-20.4344,1001.412
12.478429317,-0.2046921,-2.946051,-0.6193948,4.829477E-05,0.991226,0.1276343,32.05223,-24.15894,-20.4344,1001.408
12.498612881,0.1016842,-3.185126,-0.8635277,-0.004967407,0.9675155,0.1169541,32.03282,-23.42031,-20.43465,1001.408
12.518796444,0.28551,-3.723045,-0.7414612,-0.0102033,1.001122,0.1404965,32.03282,-23.42031,-20.43465,1001.412
12.538980007,0.2242347,-3.96212,-0.8635277,0.002122078,0.9789913,0.1429599,32.4057,-23.42004,-20.80957,1001.412
12.559163093,-0.2046921,-4.978189,-0.7414612,-0.00471735,0.9861419,0.1445712,32.4057,-23.42004,-20.80957,1001.412
12.579347134,-0.1434168,-5.097726,-1.10766,0.002014736,0.9875697,0.1572409,32.4057,-23.42004,-20.80957,1001.412
12.599530220,0.1629595,-5.157495,-0.8635277,0.01681248,1.000486,0.1472564,32.03117,-23.42186,-19.99553,1001.412
12.619713783,0.9595378,-4.798882,-1.229727,0.01397697,0.995532,0.1539748,32.03117,-23.42186,-19.99553,1001.412
12.639897346,0.4693357,-4.679345,-0.8635277,0.003553992,0.9797305,0.168275,32.04393,-23.7883,-20.81092,1001.41
12.660080910,-0.02086629,-5.217264,-0.7414612,0.00661787,0.9657515,0.1655608,32.04393,-23.7883,-20.81092,1001.41
12.680263996,0.1016842,-5.277032,-0.8024944,0.004453304,0.9850243,0.1732443,32.04393,-23.7883,-20.81092,1001.41
12.700447559,0.3467852,-4.500039,-0.6193948,0.006640543,1.003393,0.1809034,32.77718,-23.42109,-20.80809,1001.41
12.720631123,0.04040897,-4.619576,-0.8635277,0.001672962,0.9759042,0.1604166,32.77718,-23.42109,-20.80809,1001.414
12.740814686,-0.5723436,-4.91842,-0.6193948,-0.007125666,0.9853708,0.169862,32.02614,-23.11122,-20.81116,1001.414
12.758475304,-0.1434168,-5.097726,-0.5583615,-0.003282196,0.9861795,0.1917688,32.02614,-23.11122,-20.81116,1001.414
12.778658390,-0.02086629,-4.500039,-0.4973283,0.0208527,0.9845951,0.1921886,32.02614,-23.11122,-20.81116,1001.414
12.798842430,-0.5723436,-4.619576,-0.3752619,0.004993526,0.9801301,0.1789857,32.3962,-23.1136,-20.43328,1001.414
12.819025516,-0.7561693,-4.081657,-0.4362951,0.01357131,0.9882805,0.2005442,32.3962,-23.1136,-20.43328,1001.414
12.839209080,-0.3272426,-3.96212,-0.4973283,0.02019305,0.9990075,0.2036663,31.6741,-23.78571,-21.25153,1001.414
12.859392166,-0.02086629,-3.663276,-0.6193948,0.0174324,0.9489614,0.1647261,31.6741,-23.78571,-21.25153,1001.414
12.879576206,-0.02086629,-3.304663,-0.680428,0.01003735,1.001318,0.1998342,31.29128,-23.41689,-20.81401,1001.414
12.899759293,0.1016842,-3.424201,-0.8024944,0.006873507,0.9838694,0.1956009,31.29128,-23.41689,-20.81401,1001.414
12.919942856,0.3467852,-3.125357,-0.8635277,0.02213286,0.9989669,0.1618162,31.29128,-23.41689,-20.81401,1001.416
12.940126419,-0.2046921,-2.826513,-0.6193948,-0.01248313,0.9896415,0.1709276,31.64496,-22.74086,-20.81277,1001.416
12.960309982,-0.3885178,-3.244895,-0.7414612,0.003129181,1.01442,0.1874524,31.64496,-22.74086,-20.81277,1001.416
12.980493069,-1.123821,-4.380501,-0.3752619,-0.00724422,0.9949613,0.1797837,31.67246,-23.78725,-20.8124,1001.416
13.000677109,-1.675298,-4.739114,0.1130039,-0.01840768,1.000464,0.1945066,31.67246,-23.78725,-20.8124,1001.414
13.018336773,-1.062546,-5.277032,-0.009062568,-0.01300461,0.9922074,0.2045536,31.67246,-23.78725,-20.8124,1001.414
13.038520813,-0.3272426,-5.87472,-0.131129,-0.002557922,0.9664441,0.179699,32.03423,-23.41898,-20.81105,1001.414
13.058704376,0.3467852,-6.054026,-0.131129,0.01258571,0.9903967,0.181124,32.03423,-23.41898,-20.81105,1001.414
13.078887463,1.143364,-6.711483,-0.3752619,0.01356922,0.9494318,0.1603618,31.65795,-23.10708,-21.6909,1001.414
13.099071503,0.1629595,-7.78732,-0.4362951,0.0006374763,0.9420072,0.1568277,31.65795,-23.10708,-21.6909,1001.416
13.119254589,-0.6948941,-8.68385,-1.229727,0.01747098,0.9453633,0.185578,31.65795,-23.10708,-21.6909,1001.416
13.139437676,-0.5723436,-9.819457,-1.29076,0.031981,0.9423566,0.1684667,31.66439,-23.41639,-21.25166,1001.416
13.159621716,0.1016842,-9.998763,-1.229727,0.04895342,0.9745429,0.1729715,31.66439,-23.41639,-21.25166,1001.416
13.179805279,-0.08214154,-9.281538,-1.47386,0.01980538,0.952629,0.1404659,31.6741,-23.78571,-21.25153,1001.416
13.199988365,1.082088,-8.145932,-1.168694,0.01139768,0.9690976,0.1772981,31.6741,-23.78571,-21.25153,1001.416
13.220171452,-0.2046921,-7.78732,-0.131129,-0.01000753,1.023986,0.1803622,31.6741,-23.78571,-21.25153,1001.416
13.240355492,-0.6336188,-8.026394,-0.07009579,-0.03624581,1.039236,0.2157368,31.30263,-23.78466,-21.25301,1001.416
13.260539055,0.4693357,-8.743619,0.4792032,-0.05085031,1.011269,0.1801705,31.30263,-23.78466,-21.25301,1001.416
13.280722141,-0.4497931,-10.17807,-0.3752619,-0.02218037,0.9938721,0.1695658,31.66604,-23.41484,-21.69079,1001.416
13.298382759,-0.3885178,-10.59645,-0.4973283,0.03069397,1.008647,0.1756196,31.66604,-23.41484,-21.69079,1001.414
13.318566799,-0.5110683,-10.05853,-0.9245608,0.05413662,0.984952,0.1571125,31.66604,-23.41484,-21.69079,1001.414
13.338749886,-2.410601,-9.938994,-0.9855941,0.04295738,0.9910905,0.2054225,30.93279,-23.78206,-21.69362,1001.42
13.358932972,-1.307647,-9.879226,-1.168694,0.03907812,1.032786,0.1970083,30.93279,-23.78206,-21.69362,1001.42
13.379116535,0.8982626,-9.819457,-0.3142287,-0.01177102,0.9311944,0.1537124,31.30592,-23.78157,-22.13127,1001.416
13.399300575,-0.5723436,-8.922926,-0.8024944,-0.04857153,0.9830158,0.1499262,31.30592,-23.78157,-22.13127,1001.416
13.419483662,-1.797849,-9.341307,-1.412827,0.009300986,1.021993,0.2148421,31.30592,-23.78157,-22.13127,1001.416
13.439666748,0.1016842,-9.401075,-0.3142287,-0.01133244,0.9343796,0.1751846,30.915,-23.10498,-21.69386,1001.416
13.459850788,3.165447,-8.564313,0.1130039,-0.001094893,0.9262316,0.1326753,30.915,-23.10498,-21.69386,1001.416
13.480034351,2.491419,-8.504544,0.3571367,-0.05438529,1.025192,0.1390914,30.93444,-23.78051,-22.13275,1001.416
13.500217438,-1.614023,-9.102232,-0.680428,0.0314915,1.062625,0.1572233,30.93444,-23.78051,-22.13275,1001.416
13.520401478,-3.574831,-9.162001,-1.168694,0.05315604,0.9874834,0.09585416,30.22731,-22.73087,-22.51222,1001.416
13.540584564,-1.920399,-7.070095,-0.8024944,0.0668698,0.9692801,0.1441324,30.22731,-22.73087,-22.51222,1001.418
13.560767651,1.082088,-4.500039,-0.3142287,0.005453504,0.9821761,0.1688071,30.22731,-22.73087,-22.51222,1001.418
13.578428268,1.57229,-3.842582,-0.9855941,-0.01646736,0.9608202,0.139708,31.27842,-22.73517,-22.13164,1001.416
13.598611832,1.204639,-4.500039,-1.779026,-0.02272437,1.077746,0.2125864,31.27842,-22.73517,-22.13164,1001.416
13.618795872,0.9595378,-6.113795,-1.351793,-0.03806496,0.9515385,0.1638854,30.24205,-23.41082,-21.69646,1001.416
13.638978958,1.265914,-6.890789,-0.7414612,-0.00529211,0.9147069,0.1159094,30.24205,-23.41082,-21.69646,1001.416
13.659162044,1.082088,-7.249402,-1.046627,0.04361514,1.017137,0.1694431,30.24205,-23.41082,-21.69646,1001.416
13.679346085,-1.736573,-7.428708,-0.7414612,0.04233265,1.004512,0.1215096,30.24369,-23.40928,-22.13559,1001.416
13.699529648,-1.614023,-6.83102,-1.29076,0.04142166,1.000191,0.1160729,30.24369,-23.40928,-22.13559,1001.416
13.719712734,-0.5110683,-6.35287,-1.412827,0.007051949,0.970504,0.1267273,30.62793,-23.77677,-22.94951,1001.416
13.739896774,0.8982626,-7.548245,-1.656959,-0.001105903,0.9282301,0.07773056,30.62793,-23.77677,-22.94951,1001.416
13.760079861,-0.3272426,-7.608014,-2.267292,-0.01226954,1.051687,0.1687491,30.62793,-23.77677,-22.94951,1001.416
13.780262947,0.1016842,-7.249402,-1.595926,-0.001093402,1.045292,0.1462232,30.24675,-23.40641,-22.95112,1001.416
13.800446510,0.1016842,-7.906857,-2.206258,0.007699172,0.996649,0.1296768,30.24675,-23.40641,-22.95112,1001.416
13.820630550,-0.3885178,-7.608014,-1.351793,-0.01407276,1.002043,0.1395472,30.62629,-23.77831,-22.51038,1001.416
13.840813637,1.143364,-7.010326,-1.962125,0.006134687,1.006281,0.1332758,30.62629,-23.77831,-22.51038,1001.416
13.858474255,1.082088,-6.35287,-1.229727,0.009726652,1.027989,0.1482978,30.62629,-23.77831,-22.51038,1001.416
13.878657341,-1.00127,-6.113795,-1.29076,-0.005890203,1.04248,0.1782893,30.2451,-23.40795,-22.51199,1001.416
13.898840904,-1.797849,-5.516108,-0.9245608,-0.003265669,0.9856066,0.1518573,30.2451,-23.40795,-22.51199,1001.416
13.919024944,-0.9399951,-4.858651,-0.9245608,0.002884927,0.9556579,0.1517421,30.60849,-23.10124,-22.51061,1001.416
13.939208031,0.775712,-3.902351,-0.2531955,-0.01405602,1.000517,0.1468158,30.60849,-23.10124,-22.51061,1001.416
13.959391117,2.491419,-3.96212,-0.009062568,-0.01925546,1.070965,0.1686543,30.60849,-23.10124,-22.51061,1001.416
13.979575157,2.062492,-3.782813,0.6012696,-0.01879544,1.033369,0.1494193,30.62793,-23.77677,-22.94951,1001.416
13.999758244,0.28551,-3.782813,0.1740371,-0.02484951,1.016139,0.1189188,30.62793,-23.77677,-22.94951,1001.416
14.019941807,-0.1434168,-4.798882,-0.009062568,0.01308563,0.9899275,0.1314822,29.88334,-23.77621,-22.51334,1001.416
14.040125847,-0.8174446,-4.619576,-0.2531955,0.02434237,0.976622,0.1219572,29.88334,-23.77621,-22.51334,1001.416
14.060308933,-0.08214154,-4.021889,-0.4362951,0.04936868,0.9419721,0.08668701,29.89468,-24.14398,-22.95234,1001.418
14.080492020,1.44974,-3.424201,-0.9855941,0.04621936,0.9624618,0.1167789,29.89468,-24.14398,-22.95234,1001.418
14.100676060,1.265914,-2.52767,-0.8024944,0.03265296,1.007284,0.1206055,29.89468,-24.14398,-22.95234,1001.418
14.118336201,1.327189,-2.228826,-0.9245608,0.007389673,1.02245,0.11705,29.5232,-24.14293,-22.95382,1001.418
14.138519764,0.1629595,-1.929982,-1.046627,0.006907801,0.9441503,0.0478655,29.5232,-24.14293,-22.95382,1001.418
14.158703327,-1.307647,-2.288594,-1.47386,-0.003079739,1.010567,0.1270485,29.89304,-24.14553,-22.51321,1001.418
14.178886414,-1.062546,-2.946051,-0.9855941,-0.01535331,0.9489623,0.115629,29.89304,-24.14553,-22.51321,1001.418
14.199070454,-0.8787199,-2.766745,-1.168694,-0.00416834,0.9810047,0.1259785,29.89304,-24.14553,-22.51321,1001.416
14.219253540,0.8369873,-3.185126,-0.6193948,-0.01105538,1.030652,0.190714,29.52015,-24.1458,-22.13829,1001.416
14.239437103,0.8982626,-3.244895,-0.3752619,-0.02055252,0.979783,0.1269515,29.52015,-24.1458,-22.13829,1001.416
14.259620190,-0.6336188,-3.244895,-0.131129,-0.02599187,0.9908589,0.1257189,29.50544,-23.40276,-23.3932,1001.416
14.279804230,-1.307647,-3.364432,0.2350703,-0.00928156,1.004391,0.1541843,29.50544,-23.40276,-23.3932,1001.416
14.299987316,-1.00127,-3.244895,0.3571367,-0.01120188,0.9644583,0.1227418,29.50544,-23.40276,-23.3932,1001.416
14.320170879,-0.5110683,-3.48397,0.1130039,0.001506079,0.9902256,0.1329648,29.51186,-23.77516,-22.51481,1001.416
14.340354443,0.530611,-4.141426,0.1130039,0.01976147,0.9567548,0.1152451,29.51186,-23.77516,-22.51481,1001.416
14.360538006,0.775712,-4.559807,-0.07009579,0.01022887,0.9870944,0.1197522,29.89468,-24.14398,-22.95234,1001.416
14.380721092,0.8982626,-5.39657,-0.4973283,0.02175808,0.990391,0.1465628,29.89468,-24.14398,-22.95234,1001.416
14.398381710,0.1016842,-5.277032,-0.07009579,0.01480313,0.9677365,0.1242282,29.89468,-24.14398,-22.95234,1001.416
14.418565273,-0.4497931,-4.739114,-0.4973283,0.0261383,0.9869878,0.1542744,29.90134,-24.51617,-22.13668,1001.416
14.438748837,-0.2659673,-5.097726,-0.8635277,0.02975067,0.967828,0.137346,29.90134,-24.51617,-22.13668,1001.416
14.458932400,0.2242347,-5.814951,-0.6193948,-0.004268965,0.9881992,0.1820785,29.52156,-24.14447,-22.51468,1001.416
14.479115486,-0.3272426,-5.277032,-0.5583615,-0.007112244,0.9448954,0.1471645,29.52156,-24.14447,-22.51468,1001.414
14.499299526,-0.3272426,-5.695414,-0.8024944,0.0005054437,0.9920682,0.1899334,29.52156,-24.14447,-22.51468,1001.414
14.519482612,-0.02086629,-6.651714,-0.7414612,0.002259916,1.006763,0.1765973,28.7819,-24.13929,-23.3959,1001.414
14.539666176,0.1016842,-6.054026,-0.4362951,-0.006269592,0.9155551,0.1266325,28.7819,-24.13929,-23.3959,1001.414
14.559849739,0.2242347,-5.87472,-0.4362951,0.003310955,0.9993909,0.1886145,29.52485,-24.14139,-23.39295,1001.413
14.580033302,0.6531615,-5.755183,-0.5583615,0.02545715,0.9638549,0.1406797,29.52485,-24.14139,-23.39295,1001.413
14.600216389,0.3467852,-5.516108,-0.6193948,0.01207258,0.9936528,0.1451818,28.7819,-24.13929,-23.3959,1001.413
14.620400429,0.6531615,-5.575876,-0.7414612,0.02173258,1.031806,0.1721984,28.7819,-24.13929,-23.3959,1001.413
14.640583515,-0.5110683,-5.157495,-0.5583615,0.01068546,0.9888603,0.1377902,28.7819,-24.13929,-23.3959,1001.413
14.660767078,-1.920399,-5.097726,-0.8024944,0.007531152,1.009907,0.1605944,29.15173,-24.14188,-22.9553,1001.413
14.678427696,-2.04295,-5.217264,-0.7414612,0.01583638,0.9618034,0.1377337,29.15173,-24.14188,-22.9553,1001.413
14.698610783,-1.185096,-5.097726,-0.4362951,0.01043992,1.008313,0.1790489,28.7819,-24.13929,-23.3959,1001.413
14.718794823,2.001217,-5.336801,-0.5583615,-0.008574077,0.9861764,0.1353324,28.7819,-24.13929,-23.3959,1001.413
14.738977909,2.123768,-5.39657,-0.131129,-0.003789667,0.9502572,0.1000669,28.7819,-24.13929,-23.3959,1001.413
14.759161472,-0.8174446,-5.157495,-0.3142287,0.02175303,0.9909431,0.1397615,29.14367,-23.77102,-23.39455,1001.411
14.779344559,-1.368922,-5.87472,-0.8024944,0.01882392,0.9937626,0.1442009,29.14367,-23.77102,-23.39455,1001.411
14.799528599,-1.430197,-7.189633,-1.29076,0.01678299,0.9236047,0.1311373,28.40236,-23.76738,-23.83664,1001.411
14.819711685,-1.062546,-7.548245,-1.229727,0.02752948,0.9911464,0.1767377,28.40236,-23.76738,-23.83664,1001.411
14.839895248,0.530611,-7.070095,-1.412827,0.03993198,0.9627872,0.1722655,28.40236,-23.76738,-23.83664,1001.411
14.860078812,0.4693357,-7.189633,-0.9245608,0.003694679,0.9680916,0.1695042,28.41042,-24.13823,-23.39738,1001.411
14.880262375,-0.8174446,-8.086164,-0.680428,-0.01311431,1.00156,0.1896547,28.41042,-24.13823,-23.39738,1001.413
14.900445461,-0.6336188,-9.162001,-1.168694,-0.0062166,0.9895318,0.1913528,28.7819,-24.13929,-23.3959,1001.413
14.920629501,-0.08214154,-10.53668,-1.229727,-0.01941247,1.003903,0.1882505,28.7819,-24.13929,-23.3959,1001.413
14.940812588,0.6531615,-10.71599,-0.680428,-0.01297024,0.9902009,0.1626674,28.7819,-24.13929,-23.3959,1001.413
14.958473206,1.694841,-10.59645,-0.5583615,0.0279378,0.9976479,0.1569157,28.40236,-23.76738,-23.83664,1001.411
14.978656769,0.5918863,-11.25391,-0.6193948,0.01699053,0.9464729,0.1218579,28.40236,-23.76738,-23.83664,1001.411
14.998839855,-1.307647,-12.09067,-1.351793,0.02739094,0.9633171,0.1489382,28.40878,-24.13978,-22.95825,1001.411
15.019023895,-1.797849,-12.15044,-2.023159,0.04676648,0.9958448,0.17145,28.40878,-24.13978,-22.95825,1001.411
15.039206982,-0.8174446,-12.21021,-1.47386,0.0232843,0.9437677,0.1597488,28.40878,-24.13978,-22.95825,1001.411
15.059390545,1.020813,-11.67229,-1.29076,0.01616703,0.9735186,0.1783518,27.66082,-23.76395,-24.216,1001.411
15.079574108,0.9595378,-10.95506,-1.351793,-0.01826843,0.9896763,0.1587721,27.66082,-23.76395,-24.216,1001.413
15.099757671,0.2242347,-12.09067,-1.656959,-0.003397012,0.9960789,0.1705551,28.0517,-24.50363,-24.21426,1001.413
15.119940758,-0.8174446,-13.10674,-2.267292,0.01048565,1.004337,0.1891884,28.0517,-24.50363,-24.21426,1001.409
15.140123844,-0.6336188,-13.04697,-1.656959,0.004419197,0.9880222,0.1640585,28.0517,-24.50363,-24.21426,1001.409
15.160307884,1.44974,-12.38951,-1.656959,0.002201737,0.9720029,0.1637447,27.36096,-24.13239,-24.2171,1001.411
15.180491447,0.1016842,-11.55275,-1.29076,0.0005475379,0.9500852,0.1238998,27.36096,-24.13239,-24.2171,1001.411
15.200674534,-0.5110683,-11.43321,-1.10766,0.01576526,1.007204,0.1522568,27.3529,-23.76153,-24.65636,1001.411
15.218335152,-0.7561693,-11.25391,-1.534893,0.005373834,0.9495178,0.1394523,27.3529,-23.76153,-24.65636,1001.411
15.238519192,-1.920399,-11.67229,-1.534893,0.003518366,0.9826028,0.1717379,27.3529,-23.76153,-24.65636,1001.411
15.258702278,-1.675298,-11.91136,-1.47386,0.008259427,0.9895326,0.1640828,26.98949,-24.13134,-24.21858,1001.409
15.278885841,-1.00127,-12.68836,-0.9855941,0.006786007,0.9525034,0.1336703,26.98949,-24.13134,-24.21858,1001.409
15.299068928,-0.6336188,-12.68836,-1.534893,-0.01304337,1.034466,0.2428572,26.99113,-24.12979,-24.65771,1001.407
15.319252968,0.4080605,-13.70443,-1.962125,0.02395838,1.00693,0.1921395,26.99113,-24.12979,-24.65771,1001.407
15.339436054,-1.552748,-14.66073,-2.084192,0.02633763,0.9705005,0.1558942,26.61965,-24.12874,-24.65919,1001.413
15.359619141,-2.410601,-14.48142,-1.717993,0.05675045,0.9678088,0.179639,26.61965,-24.12874,-24.65919,1001.413
15.379803181,-0.3272426,-13.22628,-2.389358,0.03193133,0.986623,0.1508526,26.61965,-24.12874,-24.65919,1001.413
15.399986744,-1.062546,-12.44928,-2.816591,0.0414296,0.9989088,0.1476757,26.63265,-24.49497,-25.53732,1001.413
15.420169830,-1.00127,-12.09067,-2.511424,0.01166596,0.9872912,0.1508956,26.63265,-24.49497,-25.53732,1001.414
15.440353870,-1.246371,-9.819457,-2.328325,-0.01925763,0.9528185,0.1118183,26.26094,-24.49414,-25.47606,1001.414
15.460536957,-2.533152,-10.1183,-2.328325,-0.00603436,0.9764801,0.09085741,26.26094,-24.49414,-25.47606,1001.413
15.480720520,-1.368922,-9.998763,-1.840059,-0.06202977,1.019328,0.1326609,26.26094,-24.49414,-25.47606,1001.413
15.498381138,1.143364,-8.68385,-1.351793,-0.01262736,0.9623112,0.1416783,25.8814,-24.12223,-25.9168,1001.414
15.518564224,2.185043,-9.042463,-1.717993,0.001648684,0.9390994,0.1095698,25.8814,-24.12223,-25.9168,1001.414
15.538748264,1.265914,-9.221769,-1.47386,0.0129422,1.00134,0.1531181,26.62435,-24.12433,-25.91384,1001.414
15.558931351,-0.02086629,-7.847088,-0.8635277,0.05719474,0.971467,0.1534351,26.62435,-24.12433,-25.91384,1001.414
15.579114437,-1.062546,-6.173564,-1.168694,0.04749198,0.9762108,0.1491639,26.62435,-24.12433,-25.91384,1001.414
15.599298477,-2.04295,-5.097726,-1.046627,-0.003650554,0.938488,0.1144313,25.50828,-24.12272,-25.47915,1001.414
15.619482040,-0.2659673,-4.619576,-0.8024944,-0.02698265,0.9142239,0.08333038,25.50828,-24.12272,-25.47915,1001.414
15.639665127,2.430144,-4.380501,0.1740371,-0.04489109,0.9984646,0.1122728,25.49857,-23.75341,-25.47928,1001.414
15.659848213,2.859071,-4.380501,-0.3142287,-0.03917599,1.043908,0.1311675,25.49857,-23.75341,-25.47928,1001.412
15.680032253,0.2242347,-5.037958,-0.009062568,-0.02539467,0.9819481,0.09683308,25.49857,-23.75341,-25.47928,1001.412
15.700215816,-2.288051,-6.651714,-0.8635277,0.01335623,1.046989,0.143316,26.26423,-24.49105,-26.35432,1001.41
15.720398903,-1.920399,-7.727551,-1.046627,0.03378494,0.9930303,0.1427047,26.26423,-24.49105,-26.35432,1001.41
15.740582943,-0.08214154,-8.743619,-1.10766,0.03571972,0.9529279,0.1341228,25.89111,-24.49154,-25.91667,1001.412
15.760766029,1.694841,-8.68385,-0.8024944,0.02430668,0.9794895,0.1259067,25.89111,-24.49154,-25.91667,1001.412
15.778426647,2.001217,-8.026394,-1.046627,0.009645173,0.9951812,0.1340241,25.89111,-24.49154,-25.91667,1001.414
15.798609734,-0.2046921,-7.78732,-1.229727,0.03894168,1.005131,0.1516952,24.76862,-24.11753,-26.36037,1001.414
15.818793297,-1.797849,-7.189633,-1.412827,0.02817433,0.9784188,0.1419372,24.76862,-24.11753,-26.36037,1001.414
15.838977337,-1.307647,-6.711483,-1.351793,0.01662964,0.9757818,0.1462812,25.86363,-23.38205,-26.35619,1001.414
15.859160423,0.1629595,-5.755183,-0.9245608,-0.01999551,0.973368,0.139475,25.86363,-23.38205,-26.35619,1001.412
15.879343510,0.04040897,-5.39657,-0.6193948,-0.04248468,0.9981093,0.1516757,25.13039,-23.74927,-26.35902,1001.412
15.899527550,-0.5723436,-5.097726,0.1130039,-0.03923872,1.008772,0.1562613,25.13039,-23.74927,-26.35902,1001.412
15.919710636,-1.123821,-5.037958,0.1130039,-0.03065616,0.9776711,0.1293575,25.13039,-23.74927,-26.35902,1001.412
15.939894199,-1.736573,-6.412639,-0.009062568,-0.0183646,0.958563,0.1202027,25.13845,-24.12012,-25.91976,1001.416
15.960077286,-0.4497931,-7.368939,-0.680428,0.0140033,0.9541845,0.1215283,25.13845,-24.12012,-25.91976,1001.416
15.980261326,1.204639,-8.444776,-0.9245608,0.02824594,1.01235,0.1406623,24.77832,-24.48684,-26.36024,1001.416
16.000444412,2.552694,-7.906857,-0.8024944,0.04626294,0.9979537,0.1534887,24.77832,-24.48684,-26.36024,1001.416
16.020627975,0.8982626,-6.532176,-0.6193948,0.0509102,1.012643,0.145014,24.77832,-24.48684,-26.36024,1001.416
16.038288593,-1.00127,-5.39657,-0.6193948,0.03529296,0.9884256,0.1207149,24.77026,-24.11599,-26.7995,1001.416
16.058472633,-1.981674,-4.500039,-0.8635277,0.03090337,0.9920235,0.1422024,24.77026,-24.11599,-26.7995,1001.41
16.078655720,-1.430197,-4.619576,-0.9245608,-0.03615556,0.9141861,0.12227,24.77026,-24.11599,-26.7995,1001.41
16.098838806,-0.3272426,-5.097726,-0.4362951,-0.01658209,0.9697574,0.1666473,24.77026,-24.11599,-26.7995,1001.412
16.119022369,0.9595378,-5.575876,0.05197065,-0.03035801,0.9915474,0.196294,24.77026,-24.11599,-26.7995,1001.412
16.139205933,-0.1434168,-5.39657,-0.07009579,-7.311994E-05,1.00058,0.1613941,24.77026,-24.11599,-26.7995,1001.414
16.159389496,-2.1655,-5.87472,-0.4362951,0.03122078,1.005554,0.1463624,24.77026,-24.11599,-26.7995,1001.414
16.179572582,-1.920399,-5.635645,-0.4973283,0.04970688,0.9920178,0.1708833,24.46211,-24.11378,-27.17713,1001.414
16.199756622,0.5918863,-6.233333,-0.7414612,0.03074361,1.004995,0.1531643,24.46211,-24.11378,-27.17713,1001.414
16.219939709,1.511015,-6.113795,-1.534893,-0.007545348,0.9808387,0.1376582,24.46211,-24.11378,-27.17713,1001.414
16.240123272,0.3467852,-5.814951,-0.9855941,0.005118602,1.009755,0.172273,24.77832,-24.48684,-26.36024,1001.414
16.260307312,-0.8174446,-5.456339,-0.9245608,0.01015832,0.9532502,0.1122703,24.77832,-24.48684,-26.36024,1001.409
16.280490398,-1.062546,-5.277032,-0.8024944,0.01224604,0.9789051,0.1667861,24.47181,-24.4831,-27.177,1001.409
16.300673485,-0.08214154,-4.858651,-0.9245608,0.008753093,0.9489001,0.1579254,24.47181,-24.4831,-27.177,1001.409
16.318334103,-0.08214154,-4.380501,-0.6193948,-0.01960388,1.020075,0.169594,24.47181,-24.4831,-27.177,1001.409
16.338517666,1.143364,-4.260964,-1.046627,-0.003397809,1.075305,0.194506,24.4704,-24.48442,-26.8006,1001.409
16.358701229,0.3467852,-4.798882,-0.4973283,-0.004277473,0.9507586,0.09764456,24.4704,-24.48442,-26.8006,1001.409
16.378884792,-1.368922,-5.456339,-0.7414612,-0.003078949,1.009662,0.1693637,24.09728,-24.48492,-26.36295,1001.409
16.399067879,-1.00127,-6.113795,-0.9855941,0.02794397,0.9971878,0.1544736,24.09728,-24.48492,-26.36295,1001.414
16.419251919,-0.9399951,-6.35287,-1.229727,0.04524262,0.9237261,0.1126076,24.09728,-24.48492,-26.36295,1001.414
16.439435005,-0.5110683,-5.934489,-1.229727,0.03258819,1.011626,0.1712965,23.72244,-24.10859,-28.05835,1001.414
16.459618569,1.143364,-5.277032,-0.7414612,0.02582244,1.012263,0.1946752,23.72244,-24.10859,-28.05835,1001.414
16.479801655,0.28551,-4.081657,-0.1921622,-0.01834613,0.9958571,0.1705726,23.71775,-24.11301,-26.80369,1001.411
16.499985695,-0.6336188,-3.663276,-0.7414612,-0.03106453,1.010811,0.158236,23.71775,-24.11301,-26.80369,1001.411
16.520168781,-0.2659673,-4.081657,-0.07009579,-0.0285819,1.005122,0.1493612,23.70945,-23.74237,-27.18021,1001.413
16.540352344,-1.736573,-4.320733,0.4181699,-0.02572972,1.008546,0.1503979,23.70945,-23.74237,-27.18021,1001.413
16.560535908,-1.552748,-4.021889,0.1130039,0.03354067,0.9729427,0.1646905,23.70945,-23.74237,-27.18021,1001.415
16.580719471,-1.859124,-4.320733,0.2961035,0.01634231,0.9202458,0.1271788,22.9665,-23.74026,-27.18317,1001.415
16.598380089,-1.675298,-3.723045,0.6012696,0.03217173,1.00542,0.2101012,22.9665,-23.74026,-27.18317,1001.415
16.618563175,-0.08214154,-2.109288,0.4181699,0.01971372,0.9199483,0.1622022,23.33797,-23.74132,-27.18169,1001.415
16.638746738,-0.3272426,-1.690907,-0.131129,0.01540139,0.9182989,0.126655,23.33797,-23.74132,-27.18169,1001.415
16.658930302,-0.9399951,-2.228826,-0.3752619,0.006986412,0.935136,0.1751727,23.33797,-23.74132,-27.18169,1001.415
16.679113865,-0.3272426,-2.408132,-0.1921622,0.007812445,1.10362,0.2875015,22.9665,-23.74026,-27.18317,1001.415
16.699296951,1.143364,-1.451832,0.1740371,0.005898815,0.9453026,0.1744023,22.9665,-23.74026,-27.18317,1001.415
16.719480991,0.3467852,-1.690907,0.7843693,0.03062562,0.9749869,0.149651,22.59667,-23.73767,-27.62378,1001.415
16.739664078,0.2242347,-4.021889,-0.3142287,-0.005880986,1.001657,0.1906192,22.59667,-23.73767,-27.62378,1001.415
16.759847641,-1.246371,-6.054026,-1.351793,0.02168567,0.878071,0.08838246,22.59667,-23.73767,-27.62378,1001.419
16.780031204,-0.2659673,-7.189633,-1.656959,0.07236981,1.031846,0.1949945,22.23325,-24.10748,-27.186,1001.419
16.800214767,0.530611,-7.906857,-0.2531955,0.02969479,1.010611,0.2204259,22.23325,-24.10748,-27.186,1001.419
16.820397854,-0.2046921,-5.635645,-0.4362951,0.04869177,0.9559274,0.1930401,22.9762,-24.10958,-27.18304,1001.419
16.840581417,-1.491472,-3.304663,-0.8635277,0.03455848,0.9686413,0.1602246,22.9762,-24.10958,-27.18304,1001.421
16.860764980,-1.552748,-2.52767,-1.47386,0.01397869,1.073026,0.2547722,22.9762,-24.10958,-27.18304,1001.421
16.878425598,1.327189,-1.392063,-0.8024944,0.02765599,1.01992,0.2069888,22.61772,-24.47476,-28.06265,1001.421
16.898609161,0.2242347,-0.7943756,-0.8024944,-0.02595402,0.8682628,0.1266986,22.61772,-24.47476,-28.06265,1001.421
16.918792248,-0.8174446,-2.228826,-1.717993,0.03326161,1.035088,0.2004685,22.2349,-24.10593,-27.62513,1001.421
16.938975334,0.04040897,-2.109288,-1.351793,0.04581515,0.955331,0.1511861,22.2349,-24.10593,-27.62513,1001.421
16.959159374,-1.307647,-1.212757,-0.2531955,-0.01909663,0.8993348,0.1307096,22.2349,-24.10593,-27.62513,1001.422
16.979342937,-0.5110683,-1.690907,-1.229727,0.03958877,1.030295,0.2047436,22.96814,-23.73872,-27.6223,1001.422
16.999526024,1.817391,-1.870213,-1.412827,-0.01752095,1.007626,0.1576665,22.96814,-23.73872,-27.6223,1001.422
17.019710064,0.1016842,-2.826513,-0.1921622,-0.03261719,1.018512,0.2099689,22.95844,-23.36941,-27.62243,1001.422
17.039893150,-1.185096,-2.647207,-1.351793,0.02744874,0.997076,0.2138357,22.95844,-23.36941,-27.62243,1001.422
17.060076714,-2.04295,-5.217264,-1.47386,0.03639482,0.8972372,0.1320464,22.23325,-24.10748,-27.186,1001.422
17.080260277,-2.778253,-6.591945,-1.046627,0.008563276,0.9245886,0.1662031,22.23325,-24.10748,-27.186,1001.424
17.100443840,0.530611,-3.96212,-1.168694,0.1215646,0.952929,0.1646518,22.23325,-24.10748,-27.186,1001.424
17.120626926,2.61397,-0.4955318,-2.084192,0.0478052,1.02904,0.1969213,22.96814,-23.73872,-27.6223,1001.424
17.140810013,2.123768,-1.571369,-1.534893,-0.0298916,1.033771,0.1411716,22.96814,-23.73872,-27.6223,1001.424
17.158470631,-2.471877,-2.467901,-1.046627,-0.03245137,1.046657,0.1083424,22.9762,-24.10958,-27.18304,1001.426
17.178654671,-5.535639,-1.332294,0.7843693,-0.07780649,1.086427,0.1831573,22.9762,-24.10958,-27.18304,1001.426
17.198838234,-0.1434168,2.074525,2.066067,-0.05118942,0.9205327,0.1438275,22.9762,-24.10958,-27.18304,1001.426
17.219021320,4.268402,4.525043,0.723336,-0.01795648,0.9660172,0.05320065,22.25431,-24.84456,-27.62487,1001.426
17.239205360,1.020813,3.568743,0.4792032,0.02214809,0.9586412,0.1240375,22.25431,-24.84456,-27.62487,1001.428
17.259388447,-2.533152,2.3136,1.516768,-0.05561835,1.005987,0.2170536,22.60802,-24.10544,-28.06278,1001.428
17.279572010,-2.839528,1.118225,0.4792032,-0.01158691,0.9163581,0.1354148,22.60802,-24.10544,-28.06278,1001.428
17.299755097,-0.2046921,-0.6150693,0.1130039,0.1056557,0.9521022,0.1753637,22.60802,-24.10544,-28.06278,1001.428
17.319939137,2.491419,-3.065588,-0.8024944,0.1024723,1.016208,0.1557139,22.61303,-24.47917,-26.80799,1001.428
17.340122223,-1.185096,-2.826513,-1.717993,0.06187016,0.9846047,0.1060027,22.61303,-24.47917,-26.80799,1001.428
17.360305309,-2.04295,-2.467901,-0.8024944,0.05559506,1.023651,0.1656617,21.48224,-23.73452,-27.62821,1001.428
17.380489349,-1.185096,-1.212757,-0.1921622,0.00873109,0.9122835,0.08810543,21.48224,-23.73452,-27.62821,1001.428
17.400672913,-0.3272426,-0.8541443,-1.534893,-0.03248573,0.9703419,0.08396254,21.48224,-23.73452,-27.62821,1001.43
17.418333531,-1.797849,-2.766745,-0.9245608,-0.06364375,1.033594,0.1086163,21.85066,-23.73844,-26.81121,1001.43
17.438516617,-3.084629,-3.723045,-0.3752619,-0.07005405,0.9648259,0.1442453,21.85066,-23.73844,-26.81121,1001.43
17.458699703,-2.349326,-3.48397,0.9674689,-0.06293005,1.012985,0.1846015,22.22519,-23.73662,-27.62526,1001.43
17.478883743,1.756116,-3.842582,-0.4973283,0.06023576,1.078414,0.1716046,22.22519,-23.73662,-27.62526,1001.43
17.499067306,3.471823,-3.782813,-0.9855941,0.06536891,1.014121,0.1153403,22.22519,-23.73662,-27.62526,1001.43
17.519250393,-0.9399951,-3.96212,-1.046627,0.01375715,0.8962347,0.05274617,21.85371,-23.73557,-27.62674,1001.43
17.539434433,-2.716978,-3.364432,0.1740371,0.04488895,1.07063,0.2006683,21.85371,-23.73557,-27.62674,1001.428
17.559617519,-0.5723436,-2.52767,0.8454025,0.01218222,1.024909,0.1204978,22.22519,-23.73662,-27.62526,1001.428
17.579800606,1.327189,-1.750676,-0.680428,-0.03896698,0.9866363,0.1412252,22.22519,-23.73662,-27.62526,1001.432
17.599984169,0.4693357,-2.04952,-0.6193948,-0.01348952,0.9939172,0.1291672,21.84565,-23.36471,-28.066,1001.432
17.620168209,-1.123821,-3.304663,-0.6193948,0.00660223,1.007982,0.1089794,21.84565,-23.36471,-28.066,1001.433
17.640351295,-1.00127,-3.723045,-0.8635277,0.05268924,1.024519,0.1715222,21.84565,-23.36471,-28.066,1001.433
17.660534382,-0.5723436,-2.408132,-0.3752619,0.01090356,0.9710165,0.1296514,21.17268,-23.73364,-27.62945,1001.433
17.680718422,0.2242347,-0.1369193,-0.3752619,0.01783059,1.035856,0.1489281,21.17268,-23.73364,-27.62945,1001.433
17.698379040,0.04040897,1.177993,0.1740371,-0.004424429,1.002495,0.1084004,21.84565,-23.36471,-28.066,1001.433
17.718562126,-0.4497931,1.954987,-0.07009579,-0.02424275,0.9664342,0.09944387,21.84565,-23.36471,-28.066,1001.433
17.738745689,-2.471877,1.3573,0.4792032,-0.04583987,0.9968378,0.1282993,21.84565,-23.36471,-28.066,1001.435
17.758928776,-1.736573,0.9389183,0.2350703,-0.002090253,1.007802,0.1629998,21.48388,-23.73298,-28.06734,1001.435
17.779112816,-1.920399,0.6400745,0.2350703,-0.008864539,0.8917049,0.08480445,21.48388,-23.73298,-28.06734,1001.435
17.799295902,0.3467852,2.074525,0.2961035,0.04894575,0.9362026,0.1303663,22.21713,-23.36576,-28.06452,1001.435
17.819479465,4.574778,2.373368,-0.3752619,0.05514701,1.021623,0.1252355,22.21713,-23.36576,-28.06452,1001.437
17.839663506,4.023301,1.417068,-0.4362951,0.06175413,1.03405,0.1035754,22.21713,-23.36576,-28.06452,1001.437
17.859846592,0.775712,0.9389183,-0.5583615,0.02356388,0.9619259,0.08809298,21.47253,-23.3652,-27.62834,1001.437
17.880029678,-1.430197,0.8791496,-0.2531955,-0.03318392,1.027032,0.1317979,21.47253,-23.3652,-27.62834,1001.437
17.900213242,-1.185096,0.1619245,-0.3142287,-0.01091008,1.019394,0.1535104,21.85536,-23.73403,-28.06587,1001.437
17.920396805,-0.6948941,-0.7943756,-0.5583615,-0.0271258,0.9256601,0.1025338,21.85536,-23.73403,-28.06587,1001.437
17.940580368,-0.5110683,-1.690907,-0.4973283,0.0006978262,1.016592,0.1602501,21.85536,-23.73403,-28.06587,1001.435
17.960763454,0.2242347,-2.348363,-0.4973283,0.01261997,1.028027,0.1487809,21.85536,-23.73403,-28.06587,1001.435
17.978424072,-1.368922,-1.929982,-0.3752619,0.02065573,0.9626007,0.1134131,21.85536,-23.73403,-28.06587,1001.431
17.998608112,-1.920399,-1.810444,-0.6193948,0.02945691,0.9920213,0.1402581,21.86342,-24.10489,-27.62661,1001.431
18.018791199,-1.614023,-1.571369,-0.5583615,0.01020904,0.9487172,0.1296976,21.86342,-24.10489,-27.62661,1001.431
18.038974762,-2.410601,-1.571369,0.05197065,-0.02007647,1.018925,0.1870891,21.86342,-24.10489,-27.62661,1001.431
18.059157848,-1.307647,-1.332294,-0.07009579,-0.01414739,1.007507,0.1746897,21.86342,-24.10489,-27.62661,1001.431
18.079341888,-0.6336188,-2.169057,-0.4362951,0.001761293,0.9686632,0.1578402,21.86342,-24.10489,-27.62661,1001.431
18.099524975,-1.246371,-3.364432,-1.046627,-0.003826944,0.9916692,0.1748477,21.86671,-24.1018,-28.50487,1001.431
18.119708538,-0.02086629,-4.500039,-1.10766,0.007489705,0.9736215,0.1550104,21.86671,-24.1018,-28.50487,1001.431
18.139892101,0.8369873,-4.141426,-0.8024944,0.03982443,0.9723181,0.1393664,21.86671,-24.1018,-28.50487,1001.433
18.160075665,-0.2046921,-3.842582,-0.5583615,0.03132869,1.035699,0.1849127,22.21713,-23.36576,-28.06452,1001.433
18.180258751,0.28551,-3.902351,-0.7414612,0.02728925,1.011038,0.1737256,22.21713,-23.36576,-28.06452,1001.431
18.200442791,0.3467852,-4.260964,-0.9245608,0.004953849,0.9053149,0.1011109,21.49523,-24.10075,-28.50635,1001.431
18.220625877,-0.3885178,-4.559807,-1.046627,-0.01540562,0.9920396,0.169033,21.49523,-24.10075,-28.50635,1001.43
18.240809441,0.28551,-5.336801,-1.229727,-0.007601101,0.9453098,0.1534991,21.84565,-23.36471,-28.066,1001.43
18.258470059,-0.4497931,-5.516108,-0.4973283,-0.005014272,0.970428,0.1651839,21.84565,-23.36471,-28.066,1001.433
18.278653145,-0.6948941,-5.277032,-0.8635277,0.01751185,0.9032788,0.1297608,21.84565,-23.36471,-28.066,1001.433
18.298837185,-1.123821,-4.679345,-0.131129,-0.002462444,1.037146,0.2326764,22.22519,-23.73662,-27.62526,1001.433
18.319020271,0.9595378,-2.647207,-0.3752619,0.02421388,0.9853918,0.2145824,22.22519,-23.73662,-27.62526,1001.433
18.339203835,2.307593,-0.01738177,0.1130039,0.04949029,1.009987,0.1663734,21.49359,-24.10229,-28.06722,1001.433
18.359386921,1.020813,0.998687,-0.131129,0.01798137,0.9834659,0.1551899,21.49359,-24.10229,-28.06722,1001.433
18.379570961,-1.614023,-0.7346069,-0.07009579,-0.04966658,0.9935365,0.1623007,21.49359,-24.10229,-28.06722,1001.43
18.399754047,-3.084629,-2.587438,0.6012696,-0.06057789,0.978193,0.178557,21.86342,-24.10489,-27.62661,1001.43
18.419937611,-2.716978,-4.380501,0.1130039,-0.0003817324,0.9461928,0.1729694,21.86342,-24.10489,-27.62661,1001.431
18.440121174,-1.123821,-5.755183,-0.1921622,0.02212388,0.9595487,0.1790398,21.87642,-24.47111,-28.50474,1001.431
18.460304737,2.123768,-4.619576,-0.4973283,0.07519837,0.9975512,0.1884725,21.87642,-24.47111,-28.50474,1001.431
18.480487823,3.594374,-1.870213,-0.4973283,0.1028894,1.061147,0.1687673,21.87642,-24.47111,-28.50474,1001.431
18.500671863,0.5918863,-1.929982,-0.3752619,-0.0002780138,0.9392542,0.09108536,21.8473,-23.36317,-28.50513,1001.431
18.518331528,-0.4497931,-2.766745,-0.3752619,-0.03708682,0.9903901,0.1563809,21.8473,-23.36317,-28.50513,1001.431
18.538515568,-1.307647,-4.141426,-0.680428,-0.080315,0.9362414,0.1286104,21.48553,-23.73143,-28.50647,1001.431
18.558699131,-1.981674,-5.157495,-0.131129,-0.04623531,0.9884921,0.1874983,21.48553,-23.73143,-28.50647,1001.431
18.578882217,0.4080605,-5.87472,-0.680428,0.004600912,0.9729881,0.165707,21.48553,-23.73143,-28.50647,1001.431
18.599066257,1.204639,-5.516108,0.05197065,0.0376773,0.9901236,0.1484805,21.49523,-24.10075,-28.50635,1001.435
18.619249344,0.9595378,-4.858651,-0.8635277,0.06020517,1.001441,0.1647288,21.49523,-24.10075,-28.50635,1001.435
18.639432907,-1.552748,-5.755183,-0.7414612,0.02326393,0.9856076,0.1425732,21.86506,-24.10334,-28.06574,1001.431
18.659616470,-2.226775,-5.755183,-0.9245608,0.02075595,0.9534334,0.1584841,21.86506,-24.10334,-28.06574,1001.431
18.679800033,0.4080605,-4.320733,-0.8635277,0.02828269,0.9689555,0.1680254,21.86506,-24.10334,-28.06574,1001.431
18.699983120,2.430144,-2.587438,-0.8024944,0.03187576,0.9907554,0.173804,21.17596,-23.73056,-28.50771,1001.431
18.720166206,0.8982626,-3.782813,-0.4973283,-0.01899382,0.9696734,0.1715151,21.17596,-23.73056,-28.50771,1001.43
18.740350246,-1.185096,-6.113795,-0.6193948,-0.0346868,0.9904757,0.2001719,20.79478,-23.36019,-28.50931,1001.43
18.760533810,-2.04295,-8.325238,-0.2531955,-0.03652001,0.9432005,0.1763693,20.79478,-23.36019,-28.50931,1001.431
18.780716896,-1.797849,-9.102232,-0.9245608,0.01452885,0.9886922,0.2093095,21.18238,-24.10296,-27.62932,1001.431
18.798377514,0.6531615,-9.341307,-1.412827,0.06668483,0.9830769,0.218367,21.18238,-24.10296,-27.62932,1001.431
18.818560600,1.633566,-9.042463,-1.717993,0.0407204,1.016011,0.2297618,21.18238,-24.10296,-27.62932,1001.431
18.838744640,0.6531615,-8.863157,-0.9245608,0.07506648,1.046655,0.2692448,21.17737,-23.72923,-28.8841,1001.431
18.858928204,1.020813,-7.249402,-1.595926,0.01924506,0.8804472,0.08940625,21.17737,-23.72923,-28.8841,1001.431
18.879111290,-2.288051,-7.906857,-1.10766,-0.05768018,0.9379793,0.1826227,20.79478,-23.36019,-28.50931,1001.431
18.899295330,-2.226775,-8.086164,-1.534893,-0.0004147952,1.027599,0.2212929,20.79478,-23.36019,-28.50931,1001.431
18.919478416,3.594374,-7.30917,-0.9855941,0.03411853,0.9663121,0.1013021,20.79478,-23.36019,-28.50931,1001.43
18.939661503,4.145851,-7.189633,-1.595926,-0.02488522,0.9000663,0.09715812,20.79478,-23.36019,-28.50931,1001.43
18.959845543,0.1016842,-10.17807,-0.8635277,0.01757688,1.015958,0.2005995,20.79478,-23.36019,-28.50931,1001.43
18.980029106,-3.452281,-12.21021,-0.5583615,0.01528874,1.046345,0.1622773,20.05324,-23.35676,-28.88867,1001.43
19.000212193,-3.697382,-12.32974,-1.29076,-0.0167307,0.942065,0.1738849,20.05324,-23.35676,-28.88867,1001.43
19.020395279,-0.02086629,-11.91136,-0.8635277,0.006265049,0.9135269,0.2521134,20.05324,-23.35676,-28.88867,1001.43
19.040579319,2.430144,-10.17807,-0.8635277,0.05318921,0.9824694,0.2105893,20.43442,-23.72713,-28.88706,1001.43
19.060762882,1.511015,-8.68385,-1.168694,0.04413376,1.014335,0.1596551,20.43442,-23.72713,-28.88706,1001.43
19.078423500,0.1016842,-8.26547,-1.779026,0.04761325,0.9658753,0.1655031,20.41827,-23.04851,-29.32643,1001.431
19.098606586,-2.04295,-7.548245,-1.534893,0.03832564,0.9360999,0.173686,20.41827,-23.04851,-29.32643,1001.431
19.118789673,-1.430197,-5.814951,-1.656959,0.05977184,0.9571042,0.1886678,20.41827,-23.04851,-29.32643,1001.431
19.138973713,-1.797849,-4.91842,-0.7414612,0.01599741,0.9876131,0.1737651,20.0743,-24.09385,-29.32754,1001.431
19.159156799,-0.2659673,-4.858651,-1.29076,-0.005302744,0.9940888,0.1729514,20.0743,-24.09385,-29.32754,1001.433
19.179340363,1.44974,-5.695414,-1.046627,-0.03711687,0.9927538,0.1622668,20.43301,-23.72845,-28.51066,1001.433
19.199524403,1.756116,-6.890789,-0.5583615,-0.05611762,1.126417,0.2384146,20.43301,-23.72845,-28.51066,1001.431
19.219707489,0.5918863,-7.129864,0.1130039,-0.01930336,0.9567946,0.1016788,20.43301,-23.72845,-28.51066,1001.431
19.239890575,-2.226775,-7.667782,0.4181699,-0.01139653,0.9813318,0.08220273,19.32,-23.72398,-28.8915,1001.433
19.260074616,-2.288051,-7.906857,-0.8635277,-0.003710025,0.9819436,0.1785477,19.32,-23.72398,-28.8915,1001.433
19.280258179,-0.6336188,-7.966626,0.3571367,0.02646996,0.9601103,0.1289261,20.05653,-23.35368,-29.76693,1001.433
19.300441265,-0.8174446,-7.30917,0.5402364,0.01700735,1.063892,0.1543501,20.05653,-23.35368,-29.76693,1001.433
19.320624352,-1.123821,-7.966626,0.1740371,0.02422509,0.946672,0.112606,20.05653,-23.35368,-29.76693,1001.431
19.340808392,-1.614023,-9.162001,-0.4973283,0.01219289,0.9842072,0.1206654,20.03709,-22.67814,-29.32804,1001.431
19.358469009,0.3467852,-9.401075,-0.9245608,0.01493219,1.035397,0.1907698,20.03709,-22.67814,-29.32804,1001.431
19.378652096,1.633566,-8.504544,-0.5583615,0.008849937,0.9027172,0.07575125,20.0743,-24.09385,-29.32754,1001.431
19.398835659,1.57229,-10.53668,-1.046627,0.006332484,1.069929,0.1160449,20.0743,-24.09385,-29.32754,1001.431
19.419018746,-0.1434168,-12.44928,-0.131129,0.01735273,0.9182422,0.03760568,20.0743,-24.09385,-29.32754,1001.431
19.439202786,-1.859124,-12.9872,-1.412827,0.04871547,1.03427,0.1595563,19.67532,-23.04641,-29.32939,1001.433
19.459385872,0.1016842,-12.50905,-3.243823,0.03515898,0.9986806,0.1613048,19.67532,-23.04641,-29.32939,1001.433
19.479569435,0.28551,-12.15044,-2.267292,0.04339014,0.996704,0.1286523,19.30384,-23.04535,-29.33086,1001.433
19.499752998,0.04040897,-11.61252,-1.534893,0.02380905,0.9414721,0.0988793,19.30384,-23.04535,-29.33086,1001.433
19.519936561,0.775712,-12.09067,-1.595926,-0.04764187,0.9472952,0.08888111,19.67696,-23.04486,-29.76851,1001.433
19.540119648,1.082088,-13.88373,-2.511424,-0.0632831,1.082587,0.152405,19.67696,-23.04486,-29.76851,1001.433
19.560303688,0.775712,-15.25841,-1.47386,0.01034975,1.016372,0.1480669,19.67696,-23.04486,-29.76851,1001.433
19.580486774,-1.491472,-13.70443,-1.717993,0.04908003,0.9656184,0.09591399,18.9421,-23.35052,-29.77136,1001.433
19.600670338,-2.533152,-13.34581,-2.389358,0.0565489,0.9860516,0.09874035,18.9421,-23.35052,-29.77136,1001.433
19.618330955,-1.062546,-13.10674,-2.816591,0.05596699,0.9933161,0.1470571,18.56898,-23.35101,-29.33371,1001.433
19.638514042,-0.6948941,-11.73206,-1.962125,0.0435171,0.9462229,0.1378713,18.56898,-23.35101,-29.33371,1001.433
19.658698082,-1.123821,-10.95506,-2.206258,-0.000644849,1.007717,0.1737009,18.56898,-23.35101,-29.33371,1001.429
19.678881168,-1.00127,-11.25391,-2.694524,-0.01367375,1.008744,0.1484378,18.57869,-23.72033,-29.33359,1001.429
19.699064732,-1.00127,-11.25391,-2.572458,-0.005928391,0.9668189,0.1368918,18.57869,-23.72033,-29.33359,1001.429
19.719247818,0.2242347,-10.83553,-2.267292,-0.009334162,0.9691229,0.1437546,18.55283,-22.67239,-29.77308,1001.429
19.739431858,0.3467852,-9.759688,-1.229727,-0.0194207,1.005161,0.1590803,18.55283,-22.67239,-29.77308,1001.429
19.759614944,-0.1434168,-8.743619,-1.47386,0.02875727,0.9702692,0.1339896,18.55283,-22.67239,-29.77308,1001.429
19.779798508,-2.226775,-7.667782,-1.412827,0.02105036,0.9689398,0.1587906,18.26106,-23.34859,-29.77407,1001.433
19.799982071,-2.04295,-7.070095,-1.840059,0.02643419,0.962001,0.1824881,18.26106,-23.34859,-29.77407,1001.433
19.820165634,-0.5110683,-5.994257,-1.29076,0.01305182,0.9910104,0.2176295,18.56418,-23.04016,-30.21208,1001.433
19.840348721,1.082088,-6.293101,-0.8635277,-0.03551828,0.9801244,0.1678535,18.56418,-23.04016,-30.21208,1001.433
19.860532761,1.44974,-7.667782,-0.9245608,-0.02183262,0.9654161,0.1568374,18.56418,-23.04016,-30.21208,1001.429
19.880715847,0.4080605,-8.982695,-0.680428,-0.03663183,1.03264,0.1474847,18.25462,-23.03929,-30.21331,1001.429
19.898376465,0.4080605,-9.162001,-0.8024944,0.0429545,0.9134996,0.1143549,18.25462,-23.03929,-30.21331,1001.427
19.918560028,0.8982626,-8.086164,-0.9245608,0.0218635,0.9816535,0.1483361,17.88314,-23.03824,-30.21479,1001.427
19.938743114,2.307593,-7.78732,-0.8635277,0.02752693,1.070227,0.2152834,17.88314,-23.03824,-30.21479,1001.427
19.958927155,2.062492,-7.548245,-1.229727,0.06124231,0.9165376,0.1284992,17.88314,-23.03824,-30.21479,1001.427
19.979110241,0.5918863,-7.608014,-1.901092,0.001191959,0.9759985,0.1502008,17.89123,-23.346,-30.21469,1001.427
19.999293804,1.388465,-7.906857,-1.351793,0.0545259,0.9134975,0.131855,17.89123,-23.346,-30.21469,1001.427
20.019476891,1.265914,-6.472408,-1.10766,-0.005525032,0.9729102,0.1584216,17.8815,-23.03978,-29.77566,1001.429
20.039660931,0.775712,-6.113795,-1.10766,0.005096457,0.9721568,0.152552,17.8815,-23.03978,-29.77566,1001.429
20.059844017,0.2242347,-6.233333,-0.9245608,-0.0314033,0.9587784,0.1766701,17.50032,-22.66942,-29.77727,1001.425
20.080027580,0.9595378,-6.293101,-0.7414612,-0.01361665,1.042445,0.2191732,17.50032,-22.66942,-29.77727,1001.425
20.100211144,1.633566,-6.472408,-0.3142287,-0.001121687,0.9675405,0.1690137,17.50032,-22.66942,-29.77727,1001.425
20.120394707,0.1629595,-5.157495,-0.3752619,-0.007054394,1.058919,0.1800761,17.86373,-22.29961,-30.21505,1001.425
20.140577793,0.7144368,-4.141426,0.7843693,0.02789908,1.000264,0.1861627,17.86373,-22.29961,-30.21505,1001.425
20.160761833,0.5918863,-4.201195,-0.07009579,0.0187364,1.001071,0.1399664,17.51976,-23.34495,-30.21616,1001.425
20.178421497,-0.5110683,-5.097726,-0.009062568,0.006382366,0.9860346,0.123143,17.51976,-23.34495,-30.21616,1001.425
20.198605537,-2.778253,-6.771251,-1.29076,0.05525114,1.012779,0.1377116,17.51976,-23.34495,-30.21616,1001.425
20.218789101,-2.900803,-7.368939,-2.450391,0.0923097,1.018921,0.1601617,17.50337,-22.66655,-30.59279,1001.425
20.238972187,-0.5110683,-7.428708,-2.267292,0.07700823,0.968452,0.1450743,17.50337,-22.66655,-30.59279,1001.425
20.259156227,1.327189,-7.966626,-2.145225,-0.0003038262,0.9409985,0.1105834,17.48255,-21.92924,-30.21666,1001.421
20.279339314,-0.3885178,-7.667782,-1.717993,-0.04817466,0.9905103,0.1276909,17.48255,-21.92924,-30.21666,1001.421
20.299522400,0.1016842,-8.26547,-1.840059,0.02510412,1.03249,0.1571228,17.48255,-21.92924,-30.21666,1001.421
20.319705963,0.28551,-8.205701,-1.717993,0.02292117,0.8955387,0.08775319,17.13049,-22.66682,-30.21788,1001.421
20.339890003,-0.3272426,-7.966626,-1.840059,0.001808434,1.004449,0.164874,17.13049,-22.66682,-30.21788,1001.419
20.360073090,0.1629595,-6.173564,-1.47386,0.04751969,0.973654,0.1627377,17.50196,-22.66787,-30.2164,1001.419
20.380256176,-1.552748,-4.679345,-1.351793,0.007652119,0.9599004,0.170796,17.50196,-22.66787,-30.2164,1001.421
20.400440216,-0.1434168,-4.619576,-1.717993,0.01595644,0.9910132,0.1728593,17.50196,-22.66787,-30.2164,1001.421
20.420623779,1.082088,-4.679345,-0.2531955,-0.05952137,0.9712751,0.144844,16.39865,-23.03271,-30.5971,1001.421
20.440806866,0.4080605,-4.081657,-0.3752619,-0.05558215,1.043777,0.1686562,16.39865,-23.03271,-30.5971,1001.421
20.458467484,0.1016842,-6.35287,-0.3142287,-0.04359795,0.9713551,0.1117343,16.76042,-22.66444,-30.59575,1001.421
20.478650570,-1.185096,-7.906857,-0.07009579,-0.04217714,0.9731161,0.1317172,16.76042,-22.66444,-30.59575,1001.421
20.498834610,-1.307647,-10.17807,-1.229727,0.02019965,0.999553,0.1486928,16.76042,-22.66444,-30.59575,1001.419
20.519017696,1.020813,-10.95506,-1.962125,0.0833337,1.003165,0.1720277,17.51976,-23.34495,-30.21616,1001.419
20.539201260,2.920346,-8.145932,-1.10766,0.06614401,0.9502152,0.1111549,17.51976,-23.34495,-30.21616,1001.419
20.559385300,0.28551,-5.994257,-0.4973283,-0.002913079,1.035873,0.1650163,17.15133,-23.34103,-31.03317,1001.419
20.579568386,-0.6948941,-4.260964,-0.2531955,0.034458,1.055139,0.2324917,17.15133,-23.34103,-31.03317,1001.425
20.599751472,0.04040897,-3.125357,-0.7414612,0.007826583,0.9065599,0.1264338,17.13049,-22.66682,-30.21788,1001.425
20.619935036,0.7144368,-4.798882,-1.046627,0.006886763,0.9830262,0.1829329,17.13049,-22.66682,-30.21788,1001.421
20.640119076,0.4080605,-4.978189,-0.7414612,0.01726492,1.001909,0.1998353,17.13049,-22.66682,-30.21788,1001.421
20.660302162,-0.2046921,-5.217264,-0.8635277,0.0231449,0.9555128,0.1478168,16.76871,-23.03509,-30.21923,1001.425
20.680485248,0.775712,-5.755183,-0.4362951,0.008097577,1.041977,0.2011283,16.76871,-23.03509,-30.21923,1001.425
20.700669289,1.817391,-6.35287,-1.717993,-0.001627851,1.009079,0.1815147,16.77012,-23.03376,-30.59562,1001.427
20.718329430,1.265914,-8.325238,-1.046627,0.00293445,0.9519956,0.1302598,16.77012,-23.03376,-30.59562,1001.427
20.738512993,0.530611,-9.102232,-1.351793,0.02440133,1.010477,0.1771248,16.77012,-23.03376,-30.59562,1001.427
20.758696556,0.1016842,-9.401075,-1.229727,0.06453571,0.9630105,0.1376861,15.99806,-21.92371,-30.59897,1001.427
20.778879642,-1.614023,-9.341307,-1.534893,0.06405474,1.001784,0.18468,15.99806,-21.92371,-30.59897,1001.427
20.799063683,-1.246371,-8.922926,-1.962125,0.0402151,0.9396541,0.1601292,15.64764,-22.65975,-31.03932,1001.425
20.819246769,0.4080605,-9.69992,-2.450391,-0.01182406,0.975181,0.1643148,15.64764,-22.65975,-31.03932,1001.425
20.839430332,1.878667,-9.819457,-2.450391,-0.04568828,1.022837,0.1940163,15.64764,-22.65975,-31.03932,1001.425
20.859614372,1.511015,-9.938994,-0.680428,-0.06472087,1.002072,0.158599,16.38894,-22.66339,-30.59723,1001.425
20.879797459,-0.02086629,-9.162001,-0.9245608,-0.01175444,1.008948,0.1795806,16.38894,-22.66339,-30.59723,1001.423
20.899980545,-1.368922,-11.19414,-0.5583615,-0.02844053,0.9142475,0.1276124,16.39865,-23.03271,-30.5971,1001.423
20.920164108,-1.368922,-12.26998,-0.9245608,0.003077563,0.9395874,0.1601824,16.39865,-23.03271,-30.5971,1001.423
20.940347671,0.5918863,-11.49298,-0.3142287,0.001028017,0.9499475,0.138494,16.39865,-23.03271,-30.5971,1001.423
20.960531235,-0.3885178,-10.29761,-0.07009579,-0.02213933,0.951802,0.112289,16.02576,-23.03299,-30.22219,1001.423
20.980714321,0.04040897,-9.640151,-0.4362951,0.01675851,1.003782,0.2057122,16.02576,-23.03299,-30.22219,1001.423
20.998374939,-1.246371,-8.743619,-0.8635277,0.04589934,0.9477471,0.1831506,15.63629,-22.29198,-30.60032,1001.425
21.018558502,-0.8787199,-8.624082,-1.351793,0.06136945,0.9840392,0.211095,15.63629,-22.29198,-30.60032,1001.425
21.038742065,2.001217,-8.086164,-1.29076,0.08730567,1.032912,0.2076449,15.63629,-22.29198,-30.60032,1001.425
21.058925629,4.084576,-8.325238,-1.412827,-0.008259743,0.9211293,0.09901034,15.6557,-23.03061,-30.60006,1001.425
21.079108715,1.143364,-9.520614,-0.3752619,-0.03310207,0.9409334,0.1169559,15.6557,-23.03061,-30.60006,1001.425
21.099292755,-2.471877,-11.43321,-1.47386,0.008754573,1.028314,0.1629032,15.28422,-23.02956,-30.60154,1001.425
21.119475842,-3.145904,-12.92743,-1.595926,0.02157461,0.9656337,0.150939,15.28422,-23.02956,-30.60154,1001.425
21.139659405,-2.1655,-13.10674,-1.656959,0.03724157,0.9455892,0.1923657,15.28422,-23.02956,-30.60154,1001.425
21.159842491,0.7144368,-13.34581,-2.389358,-0.005163634,0.9823195,0.1873159,14.97466,-23.02868,-30.60277,1001.425
21.180026531,-0.3272426,-11.43321,-2.572458,0.02846944,0.993983,0.1364057,14.97466,-23.02868,-30.60277,1001.425
21.200209618,-1.062546,-11.01483,-0.1921622,0.03177755,1.037795,0.2185279,14.97466,-23.02868,-30.60277,1001.431
21.220393181,1.265914,-8.743619,-0.680428,-0.003478143,0.9633,0.1533625,14.97466,-23.02868,-30.60277,1001.431
21.240576744,2.062492,-9.042463,-2.389358,-0.02961775,1.011809,0.1086218,14.2123,-22.28795,-30.60599,1001.431
21.260760307,2.001217,-10.41714,-2.694524,0.05569043,1.017962,0.05558036,14.2123,-22.28795,-30.60599,1001.431
21.278420925,0.3467852,-8.743619,0.1740371,0.004005157,0.9046651,0.06752493,14.2123,-22.28795,-30.60599,1001.429
21.298604012,-3.391005,-5.87472,-0.9245608,0.03539167,0.940458,0.1207386,14.59677,-22.65523,-31.48264,1001.429
21.318787098,-3.268455,-8.385007,-0.8024944,0.06364662,0.9962691,0.1539165,14.59677,-22.65523,-31.48264,1001.429
21.338971138,0.9595378,-6.950558,-1.962125,-0.0008159502,0.8640761,0.09787025,14.22059,-22.65859,-30.22946,1001.429
21.359154701,3.410548,-4.44027,-0.4973283,-0.04477766,1.146064,0.2285685,14.22059,-22.65859,-30.22946,1001.429
21.379337788,0.8982626,-4.021889,0.6623029,-0.01238737,1.02266,0.1151369,14.22059,-22.65859,-30.22946,1001.429
21.399521828,-2.104225,-4.798882,-0.9855941,0.02576892,0.9401813,0.03656777,14.60483,-23.02608,-31.04338,1001.429
21.419704914,-1.736573,-5.994257,-1.595926,-0.01150193,1.027777,0.1867651,14.60483,-23.02608,-31.04338,1001.429
21.439888477,2.859071,-4.858651,-1.046627,0.04559752,1.091182,0.2302692,14.23171,-23.02658,-30.60573,1001.429
21.460071564,0.7144368,-4.739114,-1.29076,0.003752709,0.8858407,0.05985394,14.23171,-23.02658,-30.60573,1001.429
21.480255604,-2.778253,-5.336801,-1.47386,0.04504198,1.019396,0.1393173,14.23171,-23.02658,-30.60573,1001.429
21.500438690,0.6531615,-4.260964,-0.8635277,0.0412959,1.047863,0.2435292,14.95689,-22.28851,-31.04216,1001.429
21.520621776,1.939942,-1.571369,-0.1921622,-0.02033089,0.9612618,0.1382627,14.95689,-22.28851,-31.04216,1001.429
21.540805817,1.020813,-1.272526,-0.6193948,-0.007406536,1.049306,0.1229557,14.23335,-23.02504,-31.04486,1001.429
21.558465958,0.2242347,-2.348363,-0.3752619,-0.006009149,1.013362,0.1339204,14.23335,-23.02504,-31.04486,1001.429
21.578649998,-0.5110683,-3.304663,0.1130039,-0.05037595,0.9342424,0.08181458,14.23335,-23.02504,-31.04486,1001.429
21.598833084,0.1016842,-3.603507,-0.131129,0.01918992,1.003553,0.1346624,14.60177,-23.02896,-30.22785,1001.429
21.619016170,1.756116,-3.185126,-0.6193948,0.04429014,0.9624091,0.1192137,14.60177,-23.02896,-30.22785,1001.429
21.639200210,-0.3885178,-3.364432,0.6623029,-0.02874209,1.019026,0.115089,14.97466,-23.02868,-30.60277,1001.431
