Time (s),Gyroscope X (deg/s),Gyroscope Y (deg/s),Gyroscope Z (deg/s),Accelerometer X (g),Accelerometer Y (g),Accelerometer Z (g),Magnetometer X (uT),Magnetometer Y (uT),Magnetometer Z (uT),Barometer (hPa)
0.000000000,0.05332409,-0.135113,-0.1308185,0.01121842,0.9843344,0.155217,18.29488,-24.45212,-31.02835,1001.487
0.020183086,0.05332409,-0.2546505,-0.1918517,0.01414742,0.9815052,0.1517506,18.29488,-24.45212,-31.02835,1001.487
0.040367126,-0.007951167,-0.2546505,-0.06978528,0.01705213,0.9805456,0.1551334,18.6028,-24.45454,-30.58798,1001.489
0.060550690,-0.007951167,0.04419328,0.05228116,0.01549433,0.9897606,0.151912,18.6028,-24.45454,-30.58798,1001.489
0.080733776,0.2984251,0.1637308,-0.008752062,0.01261879,0.9882838,0.1499406,18.6028,-24.45454,-30.58798,1001.482
0.100916863,-0.007951167,-0.01557548,0.05228116,0.007372494,0.983323,0.1537428,18.61415,-24.82231,-31.02699,1001.482
0.121100903,0.1145993,-0.5534943,-0.06978528,0.01221211,0.9819173,0.1561408,18.61415,-24.82231,-31.02699,1001.486
0.141283989,0.05332409,-0.135113,-0.1308185,0.01511728,0.9809964,0.1556318,18.97427,-24.45559,-30.58651,1001.486
0.161467552,0.1145993,-0.07534423,-0.008752062,0.01695281,0.9888182,0.1514046,18.97427,-24.45559,-30.58651,1001.486
0.181650639,-0.007951167,0.04419328,-0.252885,0.01598975,0.9889197,0.1397299,18.97427,-24.45559,-30.58651,1001.486
0.201834679,0.05332409,-0.07534423,-0.1308185,0.01405439,0.9893271,0.1446067,18.61555,-24.82099,-31.40339,1001.486
0.222017765,-0.1305017,0.2234995,-0.06978528,0.009290609,0.9843975,0.1459759,18.61555,-24.82099,-31.40339,1001.486
0.239678383,-0.1305017,-0.07534423,-0.1308185,0.007319728,0.9876871,0.1533427,18.29488,-24.45212,-31.02835,1001.484
0.259861946,-0.1305017,0.2234995,0.1743476,0.008389662,0.9789685,0.1546283,18.29488,-24.45212,-31.02835,1001.484
0.280045033,-0.007951167,0.1637308,0.05228116,0.003943713,0.9876031,0.1567521,18.29488,-24.45212,-31.02835,1001.48
0.300229073,0.05332409,0.1637308,0.05228116,-0.0012966,0.9821676,0.1595717,18.29323,-24.45367,-30.58922,1001.48
0.320412159,-0.1305017,-0.1948817,0.1133144,0.01892259,0.9854369,0.1532811,18.29323,-24.45367,-30.58922,1001.48
0.340595722,0.05332409,0.3430371,0.1133144,0.008148843,0.9988124,0.1564812,18.60444,-24.453,-31.02711,1001.48
0.360778809,0.05332409,0.103962,0.1133144,0.003619849,1.014156,0.1660367,18.60444,-24.453,-31.02711,1001.484
0.380962849,-0.007951167,-0.2546505,-0.1308185,0.01815838,0.9690127,0.1471182,18.6028,-24.45454,-30.58798,1001.484
0.401145935,-0.1917769,0.103962,-0.1308185,0.005407776,0.9861522,0.1586676,18.6028,-24.45454,-30.58798,1001.482
0.421329498,0.05332409,-0.3144192,-0.008752062,0.003960913,0.9861162,0.1601288,18.6028,-24.45454,-30.58798,1001.482
0.441512585,0.2371498,-0.4339568,0.05228116,0.007442751,0.9774963,0.1550872,18.96457,-24.08628,-30.58663,1001.484
0.461696625,0.2371498,-0.1948817,0.05228116,0.0116487,0.9887732,0.1480054,18.96457,-24.08628,-30.58663,1001.484
0.481879711,0.2371498,-0.135113,0.1133144,0.0116477,0.9886912,0.1562757,18.60444,-24.453,-31.02711,1001.482
0.502062798,0.3597004,-0.374188,-0.008752062,0.01985875,0.98796,0.1445711,18.60444,-24.453,-31.02711,1001.482
0.519723415,0.1758746,-0.1948817,0.05228116,0.0217714,0.9895527,0.1334084,18.60444,-24.453,-31.02711,1001.483
0.539906979,0.2371498,-0.2546505,0.05228116,0.003038589,0.9827984,0.1513059,18.60444,-24.453,-31.02711,1001.483
0.560091019,0.05332409,-0.4339568,-0.008752062,0.01558254,0.9825099,0.1503086,18.60444,-24.453,-31.02711,1001.483
0.580274105,0.1145993,-0.2546505,-0.1308185,0.01270085,0.9814933,0.1507793,18.59309,-24.08523,-30.58811,1001.483
0.600457192,0.05332409,-0.01557548,0.1133144,0.001991784,0.9895505,0.1529008,18.59309,-24.08523,-30.58811,1001.483
0.620640755,0.1145993,0.103962,0.1743476,0.003492348,0.9852996,0.1440559,18.59309,-24.08523,-30.58811,1001.483
0.640824795,0.05332409,-0.01557548,0.1743476,0.01313507,0.9852883,0.1596123,18.29488,-24.45212,-31.02835,1001.485
0.661007881,0.05332409,0.04419328,0.1743476,0.03343648,0.9817817,0.1527009,18.29488,-24.45212,-31.02835,1001.485
0.681190968,-0.06922642,0.3430371,-0.008752062,0.0294916,0.9890718,0.144579,18.9565,-23.71542,-31.02589,1001.487
0.701375008,-0.06922642,0.4028058,-0.008752062,0.01704742,0.9811264,0.1454132,18.9565,-23.71542,-31.02589,1001.487
0.721558094,-0.3143274,0.04419328,-0.008752062,-0.001842691,0.9875462,0.15384,18.9565,-23.71542,-31.02589,1001.487
0.741741657,-0.1917769,-0.5534943,-0.1308185,-0.01239486,0.9823956,0.1688377,18.6028,-24.45454,-30.58798,1001.487
0.761924744,0.1758746,-0.135113,-0.008752062,-0.0104549,0.9813976,0.1746541,18.6028,-24.45454,-30.58798,1001.491
0.779585361,0.2984251,0.4028058,0.2353808,0.008301681,0.9862386,0.1542858,18.29323,-24.45367,-30.58922,1001.491
0.799768925,0.1145993,0.5821121,-0.008752062,0.02619857,0.9822745,0.1410432,18.29323,-24.45367,-30.58922,1001.495
0.819952488,-0.06922642,-0.01557548,0.1133144,0.02425838,0.9832533,0.1371727,18.29323,-24.45367,-30.58922,1001.495
0.840136051,0.05332409,-0.5534943,-0.008752062,0.02376267,0.98407,0.1517872,18.59309,-24.08523,-30.58811,1001.495
0.860319138,-0.06922642,-0.374188,-0.1918517,0.02528425,0.9776791,0.1633366,18.59309,-24.08523,-30.58811,1001.495
0.880503178,0.05332409,-0.07534423,-0.3749514,0.0170782,0.9778535,0.182329,18.61415,-24.82231,-31.02699,1001.491
0.900686264,0.4822509,-0.9718755,-0.6801175,0.01329015,0.9719309,0.1875698,18.61415,-24.82231,-31.02699,1001.491
0.920869827,0.4822509,-0.7925693,-0.4970178,0.03280369,0.9945366,0.1359237,18.61415,-24.82231,-31.02699,1001.495
0.941052914,0.4209756,1.060262,-0.1918517,-0.01053506,0.9893146,0.1091217,17.93146,-24.82193,-30.59057,1001.495
0.961236954,-0.1305017,1.000493,0.1133144,-0.01642212,0.9974192,0.1136701,17.93146,-24.82193,-30.59057,1001.495
0.981420040,-0.5594285,-0.07534423,-0.1918517,0.001464236,0.9935533,0.1393564,18.29323,-24.45367,-30.58922,1001.495
1.001603603,-0.5594285,-0.7328005,-0.1918517,0.01272739,0.9788398,0.1740829,18.29323,-24.45367,-30.58922,1001.496
1.021786690,-0.3143274,-0.4339568,-0.1308185,0.007908219,0.9780571,0.1969441,18.30294,-24.82298,-30.58909,1001.496
1.041970730,0.2371498,0.2234995,0.1133144,0.0006931457,0.9765593,0.1905994,18.30294,-24.82298,-30.58909,1001.496
1.059631348,0.4209756,0.04419328,0.2353808,0.01759927,0.9752538,0.1521084,18.30294,-24.82298,-30.58909,1001.496
1.079814434,0.3597004,-0.01557548,-0.008752062,0.02701682,0.9944411,0.1369035,18.6125,-24.82386,-30.58786,1001.496
1.099997520,0.2984251,-0.3144192,-0.1918517,0.02618155,0.9837759,0.1362071,18.6125,-24.82386,-30.58786,1001.495
1.120181084,0.05332409,-0.6730318,-0.4359846,0.02522737,0.9826723,0.1483513,18.30458,-24.82144,-31.02822,1001.495
1.140365124,0.1758746,-0.4339568,-0.252885,0.01741203,0.9908014,0.1475505,18.30458,-24.82144,-31.02822,1001.493
1.160548210,0.1758746,0.2234995,-0.1918517,-0.004746873,0.9885492,0.1460787,18.30458,-24.82144,-31.02822,1001.493
1.180731297,-0.06922642,0.2832683,-0.06978528,-0.001371267,0.9885993,0.1460747,18.96457,-24.08628,-30.58663,1001.491
1.200914860,0.1758746,0.04419328,-0.1308185,0.03101208,0.9825892,0.1653717,18.96457,-24.08628,-30.58663,1001.491
1.221098900,0.2371498,-0.1948817,-0.1918517,0.0167991,1.00132,0.1608974,18.98398,-24.82491,-30.58638,1001.493
1.241281986,0.2371498,-0.5534943,-0.252885,-0.006600074,0.9821758,0.1508211,18.98398,-24.82491,-30.58638,1001.493
1.261465073,0.1758746,-0.3144192,-0.1918517,0.006861269,0.9857666,0.1508724,18.98398,-24.82491,-30.58638,1001.493
1.281648636,0.1758746,-0.01557548,0.05228116,-0.01673957,0.9829168,0.1586361,18.97592,-24.45405,-31.02564,1001.493
1.301832199,0.05332409,0.1637308,0.1133144,0.006512865,0.9745228,0.1603821,18.97592,-24.45405,-31.02564,1001.491
1.322015762,0.3597004,0.8211871,0.7846798,0.03124498,0.9630606,0.1805556,18.6125,-24.82386,-30.58786,1001.491
1.339676380,0.7273519,2.494712,0.7236465,0.001483831,0.9903255,0.2205524,18.6125,-24.82386,-30.58786,1001.495
1.359859467,1.156279,4.586618,0.845713,0.009229667,0.9880857,0.2136845,18.6125,-24.82386,-30.58786,1001.495
1.380043030,1.40138,5.363612,0.7846798,0.04857432,0.9656096,0.1937185,18.96457,-24.08628,-30.58663,1001.495
1.400226593,0.9111777,5.901531,0.845713,0.007231019,0.9939272,0.207964,18.96457,-24.08628,-30.58663,1001.495
1.420410156,1.217554,5.662456,0.7236465,-0.01348973,0.9929308,0.1797527,18.97592,-24.45405,-31.02564,1001.495
1.440593243,0.7886271,5.303843,1.089846,0.006259626,0.9566027,0.110396,18.97592,-24.45405,-31.02564,1001.495
1.460776806,0.7273519,3.869394,0.6626133,-0.008168032,0.9924897,0.1344836,18.97592,-24.45405,-31.02564,1001.495
1.480960369,0.6660767,2.016562,0.6015801,0.004447229,0.9864613,0.1260738,18.98562,-24.82336,-31.02551,1001.495
1.501143932,1.033728,1.1798,0.1743476,0.02995587,0.990503,0.1475262,18.98562,-24.82336,-31.02551,1001.493
1.521327019,0.8499025,0.5821121,0.1743476,0.03964707,0.9867424,0.150357,18.97427,-24.45559,-30.58651,1001.493
1.541511059,0.4822509,0.8809559,-0.1918517,0.02802666,0.9904503,0.1499609,18.97427,-24.45559,-30.58651,1001.493
1.561694145,0.6660767,0.6418808,-0.1918517,0.01696038,0.9884738,0.1372868,19.34575,-24.45665,-30.58503,1001.493
1.581877709,0.6660767,0.4028058,-0.1918517,0.01415393,0.9810739,0.1463896,19.34575,-24.45665,-30.58503,1001.493
1.602060795,0.9111777,0.2832683,-0.3139182,0.01215493,0.9868864,0.143588,19.34575,-24.45665,-30.58503,1001.493
1.619721413,0.7273519,0.2234995,-0.3139182,0.01151271,0.9998311,0.1564964,19.35381,-24.8275,-30.14577,1001.493
1.639904499,0.5435262,-0.07534423,-0.3749514,0.006853883,0.9861255,0.1635308,19.35381,-24.8275,-30.14577,1001.493
1.660088539,0.7273519,-0.1948817,-0.3749514,0.01366449,0.9814401,0.157589,18.97263,-24.45714,-30.14738,1001.495
1.680272103,0.6048014,-0.374188,-0.1918517,0.01409173,0.9856278,0.175675,18.97263,-24.45714,-30.14738,1001.495
1.700455189,0.6660767,0.04419328,-0.1308185,0.02077879,0.9910896,0.1723672,18.97263,-24.45714,-30.14738,1001.496
1.720638275,0.6660767,1.000493,-0.1918517,0.02338445,0.9752094,0.1652368,19.34575,-24.45665,-30.58503,1001.496
1.740822315,0.5435262,2.255637,-0.06978528,0.01185208,0.971652,0.1646968,19.34575,-24.45665,-30.58503,1001.496
1.761005402,0.7273519,3.152169,0.2353808,-0.004321146,0.9926114,0.1768134,19.3441,-24.45819,-30.1459,1001.496
1.781188965,0.4822509,3.690087,0.6626133,-0.03094565,1.000278,0.1945214,19.3441,-24.45819,-30.1459,1001.498
1.801373005,-0.007951167,2.913093,0.6015801,-0.01628414,0.9845862,0.1864039,19.3441,-24.45819,-30.1459,1001.498
1.821556091,-0.436878,1.956793,0.7236465,-0.006434243,0.9677675,0.1870297,19.3441,-24.45819,-30.1459,1001.498
1.841739178,-0.1917769,1.598181,0.6626133,-0.0009871484,0.9960085,0.181255,19.3441,-24.45819,-30.1459,1001.498
1.861922741,0.4822509,1.478643,0.4184805,0.007736168,0.9929207,0.163664,18.99368,-25.19423,-30.58625,1001.498
1.879583359,0.7886271,1.777487,0.6015801,0.02280296,0.9834796,0.1610221,18.99368,-25.19423,-30.58625,1001.498
1.899766445,0.9111777,2.195868,0.4184805,0.03766862,0.9903762,0.1718417,18.99368,-25.19423,-30.58625,1001.498
1.919950485,0.8499025,3.032631,0.2353808,0.04263231,0.9788669,0.1672273,18.6125,-24.82386,-30.58786,1001.498
1.940133572,0.9724529,4.52685,0.6626133,0.01937471,0.9878032,0.1596529,18.6125,-24.82386,-30.58786,1001.498
1.960317135,0.9724529,4.825693,0.9067462,-0.01274988,1.01122,0.1932514,19.35381,-24.8275,-30.14577,1001.498
1.980500698,0.9724529,4.646387,0.845713,0.003593102,1.015823,0.1933185,19.35381,-24.8275,-30.14577,1001.498
2.000684261,0.6048014,3.510781,0.9067462,-0.006232805,0.9911007,0.1797058,19.35381,-24.8275,-30.14577,1001.498
2.020867348,0.6048014,2.434943,0.845713,-0.006731662,0.9529821,0.1628948,19.34575,-24.45665,-30.58503,1001.498
2.041050911,-1.478557,0.7016496,0.7236465,0.001946643,0.9916359,0.2356619,19.34575,-24.45665,-30.58503,1001.498
2.061234474,-2.336411,0.3430371,-0.008752062,0.01797442,0.9828914,0.2130823,19.73499,-25.19787,-30.14416,1001.502
2.081418037,-2.152585,0.7614183,0.296414,0.01665296,0.9332162,0.1877718,19.73499,-25.19787,-30.14416,1001.502
2.101601124,-0.007951167,2.255637,0.7846798,0.04089915,0.9620564,0.1985253,18.99039,-25.19732,-29.70799,1001.502
2.121784210,1.830307,3.331475,1.333979,0.007522908,0.9695795,0.2206196,18.99039,-25.19732,-29.70799,1001.502
2.141968250,2.933261,5.244075,0.7236465,0.04429755,0.9997577,0.2128909,18.99039,-25.19732,-29.70799,1001.502
2.159628868,2.994536,5.9613,0.4795137,0.04036393,1.006041,0.2086417,19.35381,-24.8275,-30.14577,1001.502
2.179812431,-0.1305017,5.722225,0.5405469,0.01330512,1.008935,0.2671292,19.35381,-24.8275,-30.14577,1001.502
2.199995518,-2.030035,6.021069,0.1133144,0.05593323,0.9944039,0.2327179,20.10506,-25.20025,-29.76628,1001.502
2.220178604,-1.110906,5.722225,-0.06978528,0.05320606,0.9809535,0.2168849,20.10506,-25.20025,-29.76628,1001.502
2.240362644,-0.4981532,4.52685,-0.3139182,0.05713514,0.9356195,0.2013843,20.10506,-25.20025,-29.76628,1001.5
2.260546207,-0.6207037,5.722225,1.333979,-0.0222971,0.9214126,0.2936713,20.09676,-24.82961,-30.14281,1001.5
2.280729294,0.7886271,8.830201,1.211912,-0.00652237,0.975995,0.1390206,20.09676,-24.82961,-30.14281,1001.5
2.300912380,0.7886271,10.56349,2.249477,-0.006244125,1.03175,0.1848897,19.71558,-24.45924,-30.14442,1001.5
2.321096420,0.7886271,12.95424,2.859809,-0.03340185,1.005243,0.1299072,19.71558,-24.45924,-30.14442,1001.499
2.341279507,1.340105,11.04165,2.981876,-0.01573698,1.058588,0.2005189,19.71558,-24.45924,-30.14442,1001.499
2.361463070,0.3597004,8.710664,1.272946,-0.06248537,0.8977365,0.1292819,19.34105,-24.46106,-29.33037,1001.497
2.381647110,-2.09131,6.9176,1.395012,0.007820111,0.9456708,0.1890044,19.34105,-24.46106,-29.33037,1001.497
2.401830196,0.05332409,5.542918,1.272946,0.07570842,1.075272,0.1695734,20.09535,-24.83093,-29.76641,1001.495
2.422013283,0.6048014,3.988931,0.5405469,0.0576979,1.048618,0.1919418,20.09535,-24.83093,-29.76641,1001.495
2.439673901,0.6048014,2.733787,-1.839749,0.1100533,0.9482033,0.1353799,20.09535,-24.83093,-29.76641,1001.495
2.459857464,-0.8045294,2.494712,-1.839749,0.1116565,0.9359503,0.1030203,20.09535,-24.83093,-29.76641,1001.495
2.480040550,-2.275136,2.913093,0.9677794,0.02828361,1.007707,0.2179376,20.09535,-24.83093,-29.76641,1001.495
2.500224590,-1.784933,5.363612,2.859809,-0.09688877,0.9890489,0.2021813,20.10647,-25.19892,-30.14268,1001.495
2.520407677,-2.642787,7.515287,0.7236465,-0.09589681,0.8694907,0.09373771,20.10647,-25.19892,-30.14268,1001.493
2.540591240,0.1758746,5.781993,0.2353808,-0.03301859,0.8936449,0.1461882,20.10647,-25.19892,-30.14268,1001.493
2.560774803,3.117087,4.945231,1.944311,-0.0550235,1.077144,0.1761279,20.46824,-24.83066,-30.14133,1001.493
2.580958367,2.871986,6.319912,0.6015801,0.02763161,1.142659,0.1427556,20.46824,-24.83066,-30.14133,1001.493
2.601141453,0.7273519,6.200375,-0.4970178,0.1286381,0.9282807,0.07121547,20.10647,-25.19892,-30.14268,1001.493
2.621325016,-2.765338,5.005,0.3574472,0.05174799,0.943255,0.1562908,20.10647,-25.19892,-30.14268,1001.493
2.641508579,-2.09131,7.8739,0.3574472,0.07538718,0.9057516,0.01586346,20.09535,-24.83093,-29.76641,1001.493
2.661692143,0.5435262,7.814132,-0.1308185,-0.02414135,0.9989492,0.04558953,20.09535,-24.83093,-29.76641,1001.493
2.681875229,1.952857,6.977368,-0.252885,-0.004825989,0.9569064,0.06321938,20.09535,-24.83093,-29.76641,1001.497
2.702058315,0.3597004,7.814132,0.3574472,0.004590417,0.9353833,0.09781383,20.45712,-24.46267,-29.76506,1001.497
2.719718933,0.7886271,8.531357,1.150879,-0.02752951,1.037508,0.1587592,20.45712,-24.46267,-29.76506,1001.497
2.739902973,0.2984251,8.770432,1.089846,-0.03629675,1.005075,0.1425594,20.8383,-24.83303,-29.76346,1001.497
2.760086536,-0.3756027,8.830201,1.761211,-0.03726645,0.9659514,0.1286486,20.8383,-24.83303,-29.76346,1001.497
2.780269623,0.7886271,7.8739,1.822245,0.03412205,1.006249,0.08068271,20.8383,-24.83303,-29.76346,1001.497
2.800452709,1.462655,7.933669,0.2353808,0.02854658,0.9490793,0.07177404,20.09206,-24.83402,-28.88815,1001.497
2.820636749,2.871986,7.814132,0.7236465,0.04883829,1.025032,0.1141208,20.09206,-24.83402,-28.88815,1001.497
2.840820312,3.300913,7.39575,0.05228116,0.05203829,0.9613296,0.04424656,21.5177,-24.8365,-29.32162,1001.495
2.861003399,-0.92708,6.260143,0.1133144,-0.01567825,0.9744558,0.1827964,21.5177,-24.8365,-29.32162,1001.495
2.881186485,-2.275136,5.901531,0.845713,-0.03930886,1.014608,0.153944,21.5177,-24.8365,-29.32162,1001.495
2.901370525,-1.478557,6.080837,1.333979,-0.0204787,0.9742509,0.09861987,21.5177,-24.8365,-29.32162,1001.495
2.921553612,-1.723658,5.602687,1.456045,-0.02471088,0.9250377,0.1200351,21.5177,-24.8365,-29.32162,1001.495
2.941737175,0.2371498,5.9613,1.761211,-0.04625742,0.9915125,0.1272214,21.18708,-24.09855,-28.88398,1001.495
2.961921215,2.259233,6.618756,1.822245,0.02461699,1.034017,0.1002231,21.18708,-24.09855,-28.88398,1001.494
2.979580879,2.075408,5.9613,2.005344,0.02081398,0.9891506,0.1236701,21.18708,-24.09855,-28.88398,1001.494
2.999764919,-0.3143274,5.184306,1.211912,0.04903863,1.00766,0.1561097,21.18708,-24.09855,-28.88398,1001.494
3.019948006,-1.233456,5.184306,1.456045,0.04959915,1.001534,0.1394437,21.18708,-24.09855,-28.88398,1001.494
3.040131569,0.2371498,5.244075,1.211912,0.09298891,0.9645399,0.07490495,21.89724,-25.20842,-28.88088,1001.494
3.060314655,2.259233,6.080837,0.9067462,0.001074542,0.9866526,0.1017532,21.89724,-25.20842,-28.88088,1001.494
3.080498695,2.933261,4.586618,-0.4970178,0.0007243301,0.9752592,0.1263441,21.89724,-25.20842,-28.88088,1001.495
3.100681782,2.259233,3.032631,-0.252885,-0.003874512,0.9964628,0.1311498,21.19843,-24.46631,-29.32298,1001.495
3.120865345,0.2371498,2.733787,-0.1918517,0.001524494,0.9491935,0.1175551,21.19843,-24.46631,-29.32298,1001.495
3.141048908,-2.949163,1.717718,0.4795137,0.003864141,0.9936293,0.1841204,21.20649,-24.83717,-28.88372,1001.495
3.161232472,-3.194264,1.299337,0.1743476,-0.005396538,1.001848,0.1721319,21.20649,-24.83717,-28.88372,1001.495
3.181415558,-2.887888,0.3430371,-0.06978528,0.008666104,0.9562523,0.1493125,21.20649,-24.83717,-28.88372,1001.495
3.201599121,0.5435262,1.359106,-0.008752062,0.03380054,0.9923802,0.1105771,21.52576,-25.20736,-28.88236,1001.497
3.221782684,2.136683,2.255637,-0.1918517,0.01021701,0.9484067,0.1121743,21.52576,-25.20736,-28.88236,1001.497
3.241966248,2.504334,4.108468,-0.1308185,0.03305515,1.013279,0.1518651,21.50635,-24.46873,-28.88261,1001.495
3.259626865,1.033728,3.749856,0.3574472,-0.008450132,0.9364163,0.120723,21.50635,-24.46873,-28.88261,1001.495
3.279809952,-0.6819789,5.244075,0.4795137,0.01414126,0.9819653,0.1541926,21.50635,-24.46873,-28.88261,1001.495
3.299993038,0.05332409,5.124537,0.5405469,-0.01044614,0.9821216,0.1016804,21.88753,-24.8391,-28.88101,1001.497
3.320177078,-0.1305017,5.9613,0.4184805,-0.001477858,0.9575937,0.1454612,21.88753,-24.8391,-28.88101,1001.497
3.340360642,0.4209756,6.43945,1.150879,-0.004204198,0.9838577,0.1313874,21.50635,-24.46873,-28.88261,1001.497
3.360543728,0.8499025,7.39575,1.517078,-0.004525435,1.010627,0.1187799,21.50635,-24.46873,-28.88261,1001.497
3.380726814,0.3597004,7.575056,1.333979,0.001024492,0.9902716,0.127614,21.5177,-24.8365,-29.32162,1001.497
3.400910854,-0.1305017,7.156675,1.639145,0.00926167,0.9868532,0.1426184,21.5177,-24.8365,-29.32162,1001.497
3.421094418,0.7273519,5.9613,1.272946,0.001750003,1.010284,0.113898,21.5177,-24.8365,-29.32162,1001.499
3.441277504,-0.007951167,4.467081,0.845713,0.01812323,0.9719236,0.1466892,21.52576,-25.20736,-28.88236,1001.499
3.461460590,-0.436878,4.228006,0.296414,0.05187957,0.932802,0.1356471,21.52576,-25.20736,-28.88236,1001.499
3.481644631,-1.294731,3.929162,0.296414,0.04599019,0.9803603,0.1682251,21.5274,-25.20582,-29.32149,1001.499
3.501827717,-2.152585,5.244075,-0.008752062,0.05452527,0.9530911,0.1457765,21.5274,-25.20582,-29.32149,1001.499
3.522011280,-0.92708,6.200375,-0.008752062,0.05143317,1.00923,0.1478653,21.5274,-25.20582,-29.32149,1001.499
3.539671898,0.2371498,7.156675,-0.008752062,0.02969256,0.9727198,0.132577,21.51605,-24.83805,-28.88249,1001.499
3.559854984,0.1758746,7.575056,0.05228116,-0.01490526,0.9906373,0.1646252,21.51605,-24.83805,-28.88249,1001.499
3.580039024,-0.436878,7.39575,0.4795137,-0.01587489,0.9911651,0.158798,21.89724,-25.20842,-28.88088,1001.498
3.600222111,-1.846209,7.156675,1.028813,-0.01886782,0.9597288,0.1484485,21.89724,-25.20842,-28.88088,1001.498
3.620405674,-2.397686,7.096906,1.456045,-0.04185723,0.9858822,0.1640841,21.89724,-25.20842,-28.88088,1001.499
3.640589714,-0.436878,7.335981,1.089846,-0.01487124,0.9886017,0.1256579,22.26707,-25.21101,-28.44027,1001.499
3.660772801,0.6048014,6.618756,0.9067462,-0.0273725,0.9063416,0.09582621,22.26707,-25.21101,-28.44027,1001.499
3.680955887,0.4822509,6.857831,0.9067462,0.03909591,0.9530263,0.1292539,22.62907,-24.84253,-28.50165,1001.499
3.701139450,1.462655,7.335981,1.028813,0.04119915,1.01864,0.1120591,22.62907,-24.84253,-28.50165,1001.501
3.721323013,1.707756,7.814132,0.6626133,0.06998072,0.9920497,0.1002991,22.62907,-24.84253,-28.50165,1001.501
3.741506576,1.830307,7.694593,0.2353808,0.04044301,1.000943,0.1365259,21.87477,-24.47266,-28.06561,1001.503
3.761689663,0.8499025,6.43945,-0.3139182,-0.007150544,0.9871924,0.1815762,21.87477,-24.47266,-28.06561,1001.503
3.781873226,-0.007951167,5.722225,0.1743476,-0.007191893,0.9915305,0.1349498,22.2576,-24.84148,-28.50313,1001.501
3.802056789,-0.92708,4.885462,0.4795137,-0.01647247,0.9613673,0.1333933,22.2576,-24.84148,-28.50313,1001.501
3.819717407,-1.233456,5.244075,0.845713,-0.03343232,0.9679267,0.1306285,22.2576,-24.84148,-28.50313,1001.503
3.839900970,-0.92708,4.945231,1.517078,-0.04775956,0.9956329,0.1492015,22.62578,-24.84562,-27.62339,1001.503
3.860084057,-0.3756027,5.542918,1.639145,-0.01047469,1.023286,0.1526136,22.62578,-24.84562,-27.62339,1001.503
3.880267143,0.1145993,5.901531,1.639145,-0.00530337,0.9553609,0.1206067,22.24625,-24.47371,-28.06413,1001.503
3.900451183,-1.172181,6.379681,1.822245,0.02263286,0.9578888,0.1517573,22.24625,-24.47371,-28.06413,1001.505
3.920634747,-0.8045294,7.39575,2.066377,0.04195344,0.995569,0.1432295,22.25595,-24.84302,-28.064,1001.505
3.940817833,-0.2530522,8.591125,1.700178,0.03579691,0.9863505,0.1352707,22.25595,-24.84302,-28.064,1001.503
3.961000919,-0.06922642,8.531357,0.9677794,0.02348639,0.967154,0.1470735,22.25595,-24.84302,-28.064,1001.503
3.981184959,0.3597004,8.112976,1.028813,0.01891677,0.9859262,0.1528042,22.62884,-24.84275,-28.43892,1001.505
4.001368523,0.4822509,6.798062,0.6626133,0.01937593,0.9879045,0.1494366,22.62884,-24.84275,-28.43892,1001.505
4.021551609,0.2371498,5.542918,0.4184805,0.01106593,0.9969373,0.1544935,22.24765,-24.47238,-28.44053,1001.503
4.041735649,-0.436878,3.749856,0.05228116,0.02023846,0.9959743,0.1675988,22.24765,-24.47238,-28.44053,1001.503
4.061918736,-1.539832,2.853325,-0.3749514,0.01530428,0.9654297,0.1621356,22.24765,-24.47238,-28.44053,1001.501
4.079579353,-1.601108,2.375175,-0.008752062,0.02330996,0.9816556,0.1502803,22.62578,-24.84562,-27.62339,1001.501
4.099762440,-0.3756027,3.869394,0.3574472,0.04185135,0.9649349,0.1051562,22.62578,-24.84562,-27.62339,1001.501
4.119946003,1.217554,5.9613,0.1743476,0.04109139,0.9875379,0.1211755,22.25595,-24.84302,-28.064,1001.501
4.140130043,1.52393,6.080837,0.2353808,-0.02136951,1.006397,0.1780845,22.25595,-24.84302,-28.064,1001.499
4.160313129,1.52393,5.363612,-0.06978528,-0.002136402,0.9720978,0.1476956,22.25595,-24.84302,-28.064,1001.499
4.180496216,0.6660767,4.287775,0.4795137,-0.01920552,0.9870762,0.1752659,22.99891,-24.84512,-28.06104,1001.499
4.200679779,0.2984251,3.510781,0.4184805,0.005137437,1.008403,0.1620279,22.99891,-24.84512,-28.06104,1001.499
4.220863819,-0.6819789,2.853325,0.5405469,-0.01346277,0.9903111,0.1996509,22.98755,-24.47735,-27.62204,1001.501
4.241046906,-0.7432542,3.211937,0.845713,0.006432897,1.020162,0.1997259,22.98755,-24.47735,-27.62204,1001.501
4.261229992,-1.417282,2.733787,1.517078,0.004383709,0.9502904,0.206618,22.98755,-24.47735,-27.62204,1001.493
4.281413555,-1.907484,4.048699,1.578112,-0.003530937,0.9666921,0.2020884,23.37038,-24.84617,-28.05957,1001.493
4.301597118,-0.06922642,5.005,1.639145,-0.001090685,1.044547,0.1724841,23.37038,-24.84617,-28.05957,1001.497
4.321780682,2.014132,5.841762,0.7846798,0.04936163,1.020681,0.1626926,22.9892,-24.47581,-28.06117,1001.497
4.341963768,2.075408,5.363612,0.1743476,0.03682561,0.9800408,0.1867225,22.9892,-24.47581,-28.06117,1001.499
4.359624386,1.462655,4.765924,0.4795137,0.03848948,1.001788,0.1949359,22.9892,-24.47581,-28.06117,1001.499
4.379807949,-0.436878,4.108468,0.3574472,0.01597728,0.9492118,0.186143,23.37844,-25.21703,-27.62031,1001.499
4.399991512,-2.336411,4.706156,0.7236465,0.01336495,1.005155,0.2086639,23.37844,-25.21703,-27.62031,1001.5
4.420175076,-2.704062,4.168237,1.028813,-0.007694727,1.031405,0.2174863,22.25431,-24.84456,-27.62487,1001.5
4.440358162,-2.397686,4.048699,1.150879,-0.02237456,0.8908769,0.1480642,22.25431,-24.84456,-27.62487,1001.5
4.460541725,2.320508,6.9176,2.066377,-0.01588582,1.072462,0.1205069,23.36874,-24.84771,-27.62044,1001.5
4.480725289,5.261721,7.754363,0.9067462,-0.01246421,0.8712985,0.03623377,23.36874,-24.84771,-27.62044,1001.495
4.500908852,0.6048014,6.9176,2.49361,-0.05941868,1.000018,0.275818,23.36874,-24.84771,-27.62044,1001.495
4.521091938,-2.152585,6.43945,2.371544,-0.03613708,0.991127,0.18121,23.36874,-24.84771,-27.62044,1001.499
4.541275978,-3.37809,5.602687,2.737743,0.01655111,0.9422482,0.1563225,23.36874,-24.84771,-27.62044,1001.499
4.561459065,-2.520237,5.005,2.066377,0.03084745,0.9961269,0.1680728,22.98755,-24.47735,-27.62204,1001.497
4.581642628,0.9724529,4.287775,1.639145,0.07912915,0.8740357,0.09259755,22.98755,-24.47735,-27.62204,1001.497
4.601825714,3.055812,2.016562,1.028813,0.02090671,0.9416577,0.1246763,22.98755,-24.47735,-27.62204,1001.497
4.622009754,1.217554,1.418875,-0.4359846,0.05338775,1.084855,0.2447301,23.35097,-24.10754,-28.05982,1001.497
4.639670372,1.52393,0.3430371,-0.3139182,0.089435,1.057158,0.1599496,23.35097,-24.10754,-28.05982,1001.495
4.659853459,-1.233456,0.8809559,0.1133144,0.05521119,0.9756479,0.1686049,23.35903,-24.4784,-27.62056,1001.495
4.680036545,-3.439365,0.4625746,-0.4970178,0.02053389,1.010596,0.2082744,23.35903,-24.4784,-27.62056,1001.495
4.700220108,-3.010439,0.7016496,-0.252885,0.004361923,0.9543068,0.09478258,23.35903,-24.4784,-27.62056,1001.495
4.720404148,-0.3143274,3.211937,0.3574472,-0.008655656,0.9146841,0.0643357,23.36067,-24.47686,-28.05969,1001.493
4.740587234,0.7273519,0.4625746,0.3574472,-0.0217439,0.9968835,0.2085517,23.36067,-24.47686,-28.05969,1001.493
4.760770321,2.136683,0.103962,-0.8021839,0.01095104,0.9671852,0.1251962,22.99726,-24.84666,-27.62191,1001.491
4.780953884,1.40138,-1.509794,0.05228116,0.06842199,1.001187,0.1048615,22.99726,-24.84666,-27.62191,1001.491
4.801137924,0.3597004,0.103962,0.1133144,0.02112557,0.9258158,0.01244752,22.99726,-24.84666,-27.62191,1001.491
4.821321011,1.033728,-1.210951,0.4795137,-0.02710721,0.8865814,-0.01210093,23.36067,-24.47686,-28.05969,1001.491
4.841504097,0.9724529,-1.091413,-0.6190843,-0.05613883,0.8926063,0.06980749,23.36067,-24.47686,-28.05969,1001.494
4.861688137,-1.294731,-1.569563,-0.3139182,0.01891631,1.025534,0.1652662,23.3865,-25.58789,-27.18105,1001.494
4.881871223,-3.071714,-2.286788,-0.4359846,0.003579773,0.9789533,0.1001374,23.3865,-25.58789,-27.18105,1001.492
4.902054787,-3.500641,-1.390257,-0.1918517,0.02514051,0.9513593,0.08106931,23.3865,-25.58789,-27.18105,1001.492
4.919715404,-1.784933,-1.748869,0.4795137,-0.01204666,0.994592,0.1121479,23.37844,-25.21703,-27.62031,1001.49
4.939898491,0.4209756,-1.390257,0.6015801,-0.01021403,0.9634975,0.07454923,23.37844,-25.21703,-27.62031,1001.49
4.960082531,1.585206,-1.868407,0.1743476,-0.01328418,0.9779272,0.08067836,22.97785,-24.10804,-27.62217,1001.49
4.980265617,0.3597004,-1.629332,-0.1308185,0.03579546,1.025876,0.1560031,22.97785,-24.10804,-27.62217,1001.49
5.000449181,-0.2530522,-1.091413,0.3574472,0.04681702,0.9932364,0.09257121,22.97785,-24.10804,-27.62217,1001.488
5.020632267,0.1145993,1.120031,0.1133144,0.03721033,0.9507626,0.06157631,23.37038,-24.84617,-28.05957,1001.488
5.040816307,1.217554,1.897025,0.4795137,0.01717253,1.011723,0.0895745,23.37038,-24.84617,-28.05957,1001.488
5.060999393,1.40138,1.717718,0.296414,0.008298759,0.9879363,0.08084477,23.35903,-24.4784,-27.62056,1001.488
5.081182957,-0.3143274,2.016562,0.05228116,0.0216857,0.9970111,0.1140926,23.35903,-24.4784,-27.62056,1001.488
5.101366043,-0.8045294,1.478643,0.1133144,0.009855689,1.018296,0.09993364,22.62743,-24.84407,-28.06252,1001.488
5.121550083,-0.3143274,1.359106,-0.1918517,0.01081416,1.018785,0.1009151,22.62743,-24.84407,-28.06252,1001.49
5.141733170,-0.007951167,0.8809559,0.05228116,0.009754442,0.9867621,0.103689,22.62743,-24.84407,-28.06252,1001.49
5.161916733,-0.3143274,0.6418808,-0.1308185,0.01737404,0.9944476,0.1218336,22.60637,-24.10699,-27.62365,1001.49
5.179577351,-0.3756027,0.5821121,-0.252885,0.01802718,0.9804665,0.1157169,22.60637,-24.10699,-27.62365,1001.49
5.199760437,-0.1305017,0.4028058,-0.1308185,0.003412689,0.9922882,0.1232711,23.36067,-24.47686,-28.05969,1001.49
5.219944477,0.1758746,-0.1948817,-0.3749514,-0.0009045417,0.9902333,0.1285892,23.36067,-24.47686,-28.05969,1001.49
5.240127564,-0.007951167,-0.4339568,-0.1918517,0.006161582,1.003656,0.1536604,23.36067,-24.47686,-28.05969,1001.492
5.260311127,-0.007951167,-0.5534943,-0.1918517,-0.0008230125,0.9833993,0.1338063,22.99726,-24.84666,-27.62191,1001.492
5.280494690,-0.3143274,-0.5534943,-0.1308185,0.007355236,0.984805,0.1508527,22.99726,-24.84666,-27.62191,1001.498
5.300678253,-0.4981532,-0.4937255,-0.1308185,0.02105792,0.9685954,0.1446727,23.35903,-24.4784,-27.62056,1001.498
5.320861340,-0.2530522,-0.374188,-0.1918517,0.007448679,0.9770167,0.1545911,23.35903,-24.4784,-27.62056,1001.496
5.341044426,0.05332409,-0.4339568,-0.008752062,0.01370674,0.9781461,0.147792,23.35903,-24.4784,-27.62056,1001.496
5.361228466,0.05332409,-0.01557548,-0.008752062,0.02623385,0.9793733,0.1404991,22.98755,-24.47735,-27.62204,1001.494
5.381412029,-0.1305017,0.7016496,-0.06978528,0.01462372,0.9819918,0.1522461,22.98755,-24.47735,-27.62204,1001.494
5.401595116,-0.1305017,0.9407246,-0.008752062,0.003767516,1.002124,0.1580129,22.99891,-24.84512,-28.06104,1001.496
5.421778202,-0.436878,1.120031,0.1743476,0.01021439,0.9878362,0.1426365,22.99891,-24.84512,-28.06104,1001.496
5.441962242,-0.3143274,1.1798,0.2353808,0.01215998,0.9863344,0.1503893,22.99891,-24.84512,-28.06104,1001.494
5.459622860,-0.436878,0.8809559,0.1743476,0.01983463,0.9898443,0.1499609,22.99891,-24.84512,-28.06104,1001.494
5.479805946,-0.436878,0.6418808,-0.06978528,0.01183885,0.9734671,0.1282387,22.99891,-24.84512,-28.06104,1001.494
5.499989510,-0.2530522,0.3430371,0.2353808,0.002615171,0.9779574,0.1502375,24.10198,-24.4805,-27.61761,1001.494
5.520172596,0.1758746,-0.2546505,-0.008752062,0.009769306,0.9850822,0.1265253,24.10198,-24.4805,-27.61761,1001.494
5.540356636,0.6048014,-0.7328005,-0.1308185,-0.002833694,0.9901853,0.1305375,24.10198,-24.4805,-27.61761,1001.494
5.560539723,-0.007951167,-1.270719,0.05228116,0.004440133,0.9868444,0.1362997,22.9892,-24.47581,-28.06117,1001.494
5.580723286,-0.4981532,-1.868407,-0.06978528,0.005357228,0.9906997,0.1397808,22.9892,-24.47581,-28.06117,1001.49
5.600907326,-0.436878,-2.525863,-0.3139182,0.002006325,0.9888136,0.12953,23.71109,-23.74082,-27.61934,1001.49
5.621090412,-0.06922642,-3.004013,-0.252885,0.009326932,0.9815832,0.136675,23.71109,-23.74082,-27.61934,1001.49
5.641273499,-0.007951167,-3.243088,-0.4359846,0.01216162,0.9864696,0.1367676,23.35097,-24.10754,-28.05982,1001.49
5.661457062,-0.3756027,-3.243088,-0.558051,0.02224624,0.9899187,0.1460662,23.35097,-24.10754,-28.05982,1001.492
5.681640625,-0.92708,-3.004013,-0.4359846,0.03353056,0.9740465,0.1510879,23.35097,-24.10754,-28.05982,1001.492
5.701824188,-0.8045294,-2.70517,-0.4970178,0.03743595,0.9702773,0.1461417,23.36874,-24.84771,-27.62044,1001.492
5.722007275,-0.4981532,-2.107482,-0.6801175,0.03437055,0.9841309,0.1615046,23.36874,-24.84771,-27.62044,1001.492
5.739667892,-0.007951167,-1.629332,-0.7411507,0.02856224,0.9861417,0.1454956,22.9809,-24.10517,-28.4377,1001.492
5.759851456,0.1758746,-1.390257,-0.6801175,0.01851178,0.9796997,0.1448962,22.9809,-24.10517,-28.4377,1001.492
5.780035019,0.2984251,-0.9121068,-0.6190843,0.01507789,0.9845269,0.1415907,22.9809,-24.10517,-28.4377,1001.491
5.800218582,0.1145993,-0.7328005,-0.8021839,0.008814598,0.9839351,0.1430479,23.36067,-24.47686,-28.05969,1001.491
5.820401669,-0.007951167,-0.2546505,-0.3139182,0.003486245,0.9857647,0.1460115,23.36067,-24.47686,-28.05969,1001.489
5.840585232,-0.1917769,0.5223433,-0.3749514,0.003521052,0.9828249,0.1493593,23.00861,-25.21444,-28.06092,1001.489
5.860768795,0.1758746,1.1798,-0.3139182,0.009703049,0.99027,0.1407391,23.00861,-25.21444,-28.06092,1001.485
5.880952358,0.05332409,1.65795,-0.252885,0.009754588,0.9858047,0.1513555,23.00861,-25.21444,-28.06092,1001.485
5.901135445,-0.1305017,1.837256,0.1743476,0.003480318,0.9862443,0.1465076,23.37038,-24.84617,-28.05957,1001.483
5.921318531,-0.2530522,1.65795,0.05228116,0.005984673,0.9784725,0.1521891,23.37038,-24.84617,-28.05957,1001.483
5.941502571,-0.436878,1.418875,-0.3139182,0.01081941,0.9776333,0.1463264,23.73215,-24.47791,-28.05822,1001.482
5.961686134,0.1145993,0.9407246,-0.06978528,0.01958956,0.970661,0.1296316,23.73215,-24.47791,-28.05822,1001.482
5.981869221,0.5435262,0.5821121,-0.252885,0.02225973,0.9890949,0.1314522,23.73215,-24.47791,-28.05822,1001.482
6.002053261,0.6048014,0.2832683,-0.252885,0.01853131,0.978406,0.1288132,23.37038,-24.84617,-28.05957,1001.482
6.019713879,0.4822509,-0.07534423,-0.3749514,0.01977856,0.994905,0.1281648,23.37038,-24.84617,-28.05957,1001.482
6.039896965,0.1145993,-0.3144192,-0.4970178,0.006844655,0.9873017,0.1426309,23.36874,-24.84771,-27.62044,1001.482
6.060080528,0.05332409,-0.7925693,-0.4359846,0.004561871,0.9765474,0.148747,23.36874,-24.84771,-27.62044,1001.482
6.080263615,0.05332409,-1.270719,-0.4970178,0.007265678,0.9919448,0.1636454,23.36874,-24.84771,-27.62044,1001.482
6.100447655,0.2984251,-1.928176,-0.4359846,-0.00332594,0.9903199,0.1650885,22.98755,-24.47735,-27.62204,1001.482
6.120630741,0.1758746,-1.987945,-0.6801175,0.007148342,0.9619899,0.1547807,22.98755,-24.47735,-27.62204,1001.482
6.140813828,0.6048014,-1.868407,-0.6190843,-0.004279068,0.9893031,0.1684759,23.35903,-24.4784,-27.62056,1001.486
6.160997391,0.4209756,-1.450026,-0.4359846,-0.01047809,0.9833592,0.17226,23.35903,-24.4784,-27.62056,1001.486
6.181181431,0.6048014,-1.270719,-0.1918517,-0.007074303,0.980891,0.1819379,23.74186,-24.84722,-28.05809,1001.484
6.201364517,0.2984251,-1.390257,-0.1918517,-0.003717179,0.9823217,0.1892601,23.74186,-24.84722,-28.05809,1001.484
6.221547604,0.1758746,-1.031644,-0.008752062,0.008691665,0.9931634,0.1894565,23.74186,-24.84722,-28.05809,1001.484
6.241731644,0.2371498,-0.613263,0.296414,0.01901873,0.9372571,0.1747104,23.35238,-24.10622,-28.43622,1001.484
6.261915207,0.4822509,-0.2546505,-0.06978528,0.01036726,0.9742953,0.1890806,23.35238,-24.10622,-28.43622,1001.484
6.279575348,1.095003,-0.2546505,-0.252885,0.008214546,0.9926092,0.1957719,23.37038,-24.84617,-28.05957,1001.484
6.299758911,0.6048014,0.2832683,-0.3139182,0.01839965,0.9878821,0.1990695,23.37038,-24.84617,-28.05957,1001.484
6.319941998,0.05332409,1.418875,0.1133144,0.02735,0.9657502,0.1966719,23.37038,-24.84617,-28.05957,1001.484
6.340126038,-0.4981532,2.016562,0.4184805,0.003598202,0.9756287,0.1910633,23.73215,-24.47791,-28.05822,1001.482
6.360309124,0.05332409,3.0924,0.05228116,0.01394319,0.9975869,0.1909961,23.73215,-24.47791,-28.05822,1001.482
6.380492687,0.2371498,3.032631,0.6015801,-0.005074309,0.9751605,0.1764691,23.35097,-24.10754,-28.05982,1001.482
6.400675774,-0.436878,3.331475,0.3574472,0.0240244,1.001723,0.1798717,23.35097,-24.10754,-28.05982,1001.482
6.420859814,-0.6207037,2.972862,0.2353808,0.0191326,1.007541,0.1722086,23.35097,-24.10754,-28.05982,1001.484
6.441042900,-1.04963,3.032631,0.1743476,0.02198001,0.971894,0.1554415,23.35903,-24.4784,-27.62056,1001.484
6.461226463,-1.04963,2.674018,0.1743476,0.0242597,0.9823925,0.1751094,23.35903,-24.4784,-27.62056,1001.484
6.481409550,-1.110906,1.777487,-0.1308185,0.0156453,0.9770322,0.1652843,23.73215,-24.47791,-28.05822,1001.484
6.501593590,-0.4981532,1.65795,-0.252885,0.01524001,0.9707816,0.1598087,23.73215,-24.47791,-28.05822,1001.486
6.521776676,0.1758746,1.1798,-0.4970178,0.01848941,0.9817289,0.1356913,23.73215,-24.47791,-28.05822,1001.486
6.541960240,0.1758746,1.1798,-0.008752062,-0.0008619656,0.9859965,0.1649993,23.34267,-23.7369,-28.43635,1001.486
6.559620857,1.40138,2.1361,-0.252885,0.01015286,0.9934151,0.1174445,23.34267,-23.7369,-28.43635,1001.486
6.579803944,0.9111777,1.897025,0.1743476,6.142443E-05,0.9507265,0.1073693,23.34768,-24.11063,-27.18156,1001.486
6.599987984,0.3597004,1.538412,0.4795137,-0.02671901,0.970711,0.1530567,23.34768,-24.11063,-27.18156,1001.486
6.620171070,0.8499025,0.6418808,-0.008752062,-0.006776142,1.036353,0.159679,23.34768,-24.11063,-27.18156,1001.486
6.640354633,0.4209756,0.04419328,0.5405469,-0.008541547,0.9830481,0.1576535,22.9809,-24.10517,-28.4377,1001.486
6.660538197,-0.1917769,-0.5534943,0.05228116,0.01223113,0.9399664,0.1845058,22.9809,-24.10517,-28.4377,1001.486
6.680721760,-0.92708,-1.031644,0.1133144,0.01728746,0.9998946,0.2075808,23.36067,-24.47686,-28.05969,1001.488
6.700904846,-0.3756027,-0.1948817,0.1133144,0.0262698,1.015205,0.1918133,23.36067,-24.47686,-28.05969,1001.488
6.721087933,0.4822509,1.000493,0.5405469,0.0256384,0.9487821,0.1462202,23.36067,-24.47686,-28.05969,1001.486
6.741271973,0.6660767,1.717718,0.7846798,-0.009190358,0.9171261,0.1592692,23.73356,-24.47658,-28.43461,1001.486
6.761455536,0.7273519,1.418875,0.296414,0.003852929,0.9946415,0.1797611,23.73356,-24.47658,-28.43461,1001.482
6.781638622,0.8499025,1.418875,0.1743476,0.03251574,0.9785942,0.1307428,23.38008,-25.21549,-28.05944,1001.482
6.801822662,-0.3756027,1.120031,0.3574472,0.008381865,0.9792936,0.1706921,23.38008,-25.21549,-28.05944,1001.488
6.822005749,-0.5594285,1.120031,0.4184805,0.01840137,0.9889941,0.1358352,23.73051,-24.47945,-27.61909,1001.488
6.839666367,-1.233456,1.299337,0.3574472,0.03017534,0.9718032,0.1768375,23.73051,-24.47945,-27.61909,1001.486
6.859849930,-1.294731,1.598181,-0.06978528,0.01921371,1.039348,0.2385272,23.73051,-24.47945,-27.61909,1001.486
6.880033016,-0.2530522,1.837256,-0.252885,0.03128811,0.9598392,0.1634613,22.97785,-24.10804,-27.62217,1001.487
6.900217056,0.5435262,2.375175,-0.558051,0.01380676,0.9699315,0.145683,22.97785,-24.10804,-27.62217,1001.487
6.920400143,1.217554,2.674018,0.4795137,-0.001737441,1.018441,0.1656428,23.34932,-24.10909,-27.62069,1001.489
6.940583229,2.381784,2.375175,0.1743476,-0.007271086,0.9985577,0.110273,23.34932,-24.10909,-27.62069,1001.489
6.960766792,2.136683,1.359106,0.2353808,-0.004643776,0.9409437,0.1096155,23.34932,-24.10909,-27.62069,1001.493
6.980950832,0.2984251,1.478643,-0.6190843,0.04975947,0.9876394,0.1727429,23.36067,-24.47686,-28.05969,1001.493
7.001133919,-0.436878,1.478643,-0.3139182,0.04486266,1.032689,0.2154882,23.36067,-24.47686,-28.05969,1001.493
7.021317005,-0.92708,3.152169,-0.1918517,0.06480349,0.9801937,0.1643015,23.7208,-24.11014,-27.61922,1001.493
7.041500568,0.8499025,4.646387,0.5405469,0.004914801,0.9871958,0.150417,23.7208,-24.11014,-27.61922,1001.493
7.061684608,2.871986,6.9176,-0.06978528,0.01536632,1.040155,0.1514498,23.7208,-24.11014,-27.61922,1001.493
7.081867695,2.259233,6.9176,-0.3749514,0.0005957698,1.024638,0.1793864,23.71274,-23.73928,-28.05847,1001.493
7.102050781,0.2984251,7.814132,1.395012,0.02233921,0.9424452,0.1451264,23.71274,-23.73928,-28.05847,1001.493
7.119711399,-1.172181,9.368119,1.150879,-0.04473212,0.9844584,0.1567613,23.71915,-24.11168,-27.18008,1001.491
7.139894962,-1.172181,9.547426,0.9677794,-0.03675843,0.9632422,0.1582761,23.71915,-24.11168,-27.18008,1001.491
7.160078526,0.05332409,9.786501,1.395012,-0.0366114,0.9908043,0.1641738,23.71915,-24.11168,-27.18008,1001.491
7.180262089,1.156279,9.84627,0.845713,0.02973991,1.0472,0.1953609,23.34126,-23.73823,-28.05995,1001.491
7.200445175,-0.3143274,9.308351,1.089846,0.004025787,0.9401987,0.1976602,23.34126,-23.73823,-28.05995,1001.493
7.220629215,-1.907484,8.949739,1.333979,0.00271863,0.9680885,0.217191,23.73692,-24.85186,-26.7407,1001.493
7.240812302,-1.478557,8.352051,0.9067462,0.00592021,1.022485,0.2090178,23.73692,-24.85186,-26.7407,1001.493
7.260995865,0.9111777,8.232513,1.578112,0.01638895,1.035282,0.1557311,23.73692,-24.85186,-26.7407,1001.493
7.281178951,2.443059,7.276212,0.9067462,0.05651375,0.9889625,0.09831144,24.08899,-24.11428,-26.73948,1001.491
7.301362991,0.6048014,6.200375,0.6626133,0.04675575,1.036542,0.1717689,24.08899,-24.11428,-26.73948,1001.491
7.321546078,-2.09131,6.9176,0.7236465,0.02701037,0.9948772,0.141778,24.46211,-24.11378,-27.17713,1001.49
7.341729641,-3.132989,6.140606,1.395012,-0.02956171,0.9274555,0.1132778,24.46211,-24.11378,-27.17713,1001.49
7.361913204,-1.356007,5.662456,1.517078,-0.04620988,1.105654,0.1971159,23.72886,-24.481,-27.17995,1001.488
7.379573345,1.891582,4.347543,0.4795137,-0.06668474,1.045587,0.1161569,23.72886,-24.481,-27.17995,1001.488
7.399757385,1.217554,3.630318,0.7236465,0.04052951,0.9142587,0.1318906,23.72886,-24.481,-27.17995,1001.486
7.419940472,-0.5594285,3.809625,1.395012,0.06410991,1.035326,0.2714695,24.77167,-24.11466,-27.17589,1001.486
7.440124035,-0.6819789,4.586618,2.249477,0.01864981,0.9688107,0.119378,24.77167,-24.11466,-27.17589,1001.486
7.460307598,2.014132,5.423381,0.9677794,-0.0124127,0.9857683,0.07304688,24.77997,-24.4853,-26.79937,1001.486
7.480491161,2.197958,5.064768,0.7846798,-0.002417603,0.99539,0.1437777,24.77997,-24.4853,-26.79937,1001.486
7.500674248,-0.2530522,4.347543,1.150879,0.03617602,0.9546697,0.1545932,24.77997,-24.4853,-26.79937,1001.486
7.520857334,-2.581512,5.303843,0.9067462,-0.01046375,0.9835747,0.1017092,24.4607,-24.11511,-26.80073,1001.486
7.541041374,-2.09131,5.124537,1.089846,-0.04608027,1.056362,0.1353168,24.4607,-24.11511,-26.80073,1001.486
7.561224938,0.05332409,6.080837,1.578112,-0.03984835,1.020532,0.09323866,24.77003,-24.1162,-26.73676,1001.486
7.581408024,1.217554,6.200375,2.005344,0.009809317,1.022219,0.09514549,24.77003,-24.1162,-26.73676,1001.486
7.581408024,1.217554,6.200375,2.005344,0.009809317,1.022219,0.09514549,24.77003,-24.1162,-26.73676,1001.486
7.601591110,-0.3756027,4.885462,2.127411,0.004107849,0.9749939,0.1093034,24.77003,-24.1162,-26.73676,1001.486
7.621775150,-3.010439,4.347543,2.188444,0.03322164,0.9602491,0.1250262,24.46046,-24.11533,-26.738,1001.486
7.641958714,-3.071714,3.57055,1.578112,0.01123935,0.9831566,0.1274582,24.46046,-24.11533,-26.738,1001.486
7.659619332,-0.8658047,2.972862,1.272946,0.02876298,0.9310956,0.07774343,25.14009,-24.11858,-26.35889,1001.488
7.679802418,0.8499025,2.972862,1.333979,0.02756995,0.9886747,0.1328959,25.14009,-24.11858,-26.35889,1001.488
7.699985504,2.81071,2.554481,0.6015801,0.03423757,1.036054,0.1046286,25.14009,-24.11858,-26.35889,1001.488
7.720169544,1.952857,0.9407246,-0.008752062,0.0278242,0.9680021,0.1169156,24.77167,-24.11466,-27.17589,1001.488
7.740352631,0.3597004,1.060262,0.3574472,0.01790892,0.9900812,0.1232062,24.77167,-24.11466,-27.17589,1001.488
7.760536194,-0.2530522,1.299337,0.296414,0.0162528,1.007651,0.1079856,25.1595,-24.85721,-26.35863,1001.488
7.780720234,-0.3143274,0.5821121,-0.008752062,0.01980508,0.9932185,0.1028288,25.1595,-24.85721,-26.35863,1001.488
7.800903320,-0.2530522,0.6418808,-0.008752062,0.01166657,0.9883114,0.09690462,25.1595,-24.85721,-26.35863,1001.488
7.821086407,0.2984251,0.1637308,-0.3749514,0.03463809,1.003234,0.09230036,24.78138,-24.48397,-27.17577,1001.488
7.841269970,-0.007951167,-0.6730318,-0.3749514,0.05920733,1.005454,0.1005802,24.78138,-24.48397,-27.17577,1001.488
7.861454010,-0.5594285,-0.9121068,-0.7411507,0.01659968,0.9791224,0.1025546,24.77973,-24.48552,-26.73664,1001.484
7.881637096,-0.6207037,-0.9121068,-1.046317,0.03348416,0.9789367,0.09766023,24.77973,-24.48552,-26.73664,1001.484
7.901820183,0.2371498,-1.210951,-0.8632172,0.01457767,0.9869109,0.09589946,24.78138,-24.48397,-27.17577,1001.484
7.922004223,1.095003,-0.613263,-0.9242504,0.001339781,1.004595,0.1006482,24.78138,-24.48397,-27.17577,1001.484
7.939664364,0.8499025,-0.4937255,-0.6801175,-0.008442315,1.015385,0.1217993,24.78138,-24.48397,-27.17577,1001.484
7.959847927,0.05332409,-0.7328005,-0.6190843,-0.02823803,0.9773144,0.1201017,24.77167,-24.11466,-27.17589,1001.484
7.980031490,-0.5594285,-0.6730318,-0.252885,-0.01519459,0.9755508,0.121994,24.77167,-24.11466,-27.17589,1001.484
8.000214577,-0.4981532,-0.3144192,-0.06978528,-0.007127798,0.9861641,0.1387362,24.77167,-24.11466,-27.17589,1001.484
8.020398617,0.5435262,-0.1948817,0.05228116,-0.002256738,0.9825106,0.1235725,24.77167,-24.11466,-27.17589,1001.488
8.040581703,0.7273519,0.2832683,0.2353808,0.002100118,0.9810542,0.1303495,24.77167,-24.11466,-27.17589,1001.488
8.060765266,0.4822509,0.4028058,0.2353808,0.01725984,1.003428,0.1443945,24.76196,-23.74535,-27.17602,1001.478
8.080948353,0.2371498,0.7614183,0.2353808,0.02606939,0.9929254,0.1417408,24.76196,-23.74535,-27.17602,1001.478
8.101132393,0.1145993,0.9407246,0.2353808,0.01200151,0.9994119,0.1506484,24.78138,-24.48397,-27.17577,1001.478
8.121315479,-0.06922642,0.7614183,0.1133144,0.004961289,0.9832823,0.1542322,24.78138,-24.48397,-27.17577,1001.478
8.141499043,-0.6207037,0.8211871,0.296414,0.007099751,0.9657297,0.1684792,24.78138,-24.48397,-27.17577,1001.484
8.161682129,-0.436878,0.8211871,0.296414,0.002719651,0.9691425,0.1597947,24.4704,-24.48442,-26.8006,1001.484
8.181866169,-0.007951167,0.8211871,0.296414,0.003519534,0.9826993,0.1620081,24.4704,-24.48442,-26.8006,1001.484
8.202049255,0.1758746,1.299337,0.3574472,0.01263442,0.9866667,0.1664526,25.16256,-24.85434,-27.17416,1001.484
8.219709873,0.1758746,1.897025,0.3574472,0.009698085,0.9898597,0.1820908,25.16256,-24.85434,-27.17416,1001.486
8.239893436,0.2371498,2.494712,0.3574472,0.01642346,0.9926713,0.1529414,25.16256,-24.85434,-27.17416,1001.486
8.260076523,-0.007951167,3.271706,0.4184805,0.01265848,0.9847775,0.1615493,24.48011,-24.85374,-26.80047,1001.483
8.280260563,0.1145993,3.510781,0.4184805,0.01124788,0.9819223,0.154196,24.48011,-24.85374,-26.80047,1001.483
8.300443649,0.1758746,3.690087,0.6626133,0.01363567,0.9839053,0.1532586,25.15285,-24.48502,-27.17429,1001.483
8.320626736,0.4822509,3.630318,0.5405469,0.01113525,0.9910334,0.1636217,25.15285,-24.48502,-27.17429,1001.483
8.340810776,0.3597004,3.0924,0.1743476,0.02493231,0.9671127,0.1533962,25.15285,-24.48502,-27.17429,1001.485
8.360994339,0.6048014,3.032631,0.3574472,0.02451483,1.001439,0.1604019,24.78138,-24.48397,-27.17577,1001.485
8.381177425,0.7273519,2.913093,0.1743476,0.02462682,0.9922748,0.1563276,24.78138,-24.48397,-27.17577,1001.489
8.401360512,0.6048014,1.837256,-0.1308185,0.00268385,0.9720004,0.1647171,24.76862,-24.11753,-26.36037,1001.489
8.421544552,0.2371498,1.538412,-0.3139182,0.003975659,0.9844267,0.1839381,24.76862,-24.11753,-26.36037,1001.489
8.441728115,0.3597004,1.239568,0.05228116,0.002348657,0.9995551,0.1706154,24.76862,-24.11753,-26.36037,1001.489
8.461911202,0.5435262,1.1798,-0.008752062,-0.0006097516,1.004802,0.1746163,25.13203,-23.74772,-26.79815,1001.485
8.479571819,-0.007951167,0.8809559,-0.06978528,0.01323216,0.9768323,0.1818278,25.13203,-23.74772,-26.79815,1001.485
8.499754906,-0.2530522,0.6418808,-0.008752062,0.01234088,0.9712327,0.1588487,25.14009,-24.11858,-26.35889,1001.485
8.519938946,-0.3143274,0.7016496,0.1743476,0.0009912924,0.9923747,0.1597704,25.14009,-24.11858,-26.35889,1001.485
8.540122032,-0.06922642,0.7016496,0.1133144,0.006289655,0.9929137,0.1622062,25.14009,-24.11858,-26.35889,1001.487
8.560305596,-0.3143274,0.2234995,0.1743476,0.003678882,0.9696943,0.1544517,25.52292,-24.4874,-26.79641,1001.487
8.580489636,-0.1305017,0.2234995,0.05228116,0.01368484,0.9802139,0.1346952,25.52292,-24.4874,-26.79641,1001.491
8.600672722,0.3597004,0.7016496,-0.008752062,0.0163593,0.998033,0.1496415,25.52292,-24.4874,-26.79641,1001.491
8.620855808,0.6660767,-0.5534943,-0.008752062,9.233067E-05,0.9871098,0.1518821,25.52292,-24.4874,-26.79641,1001.489
8.641039372,0.7273519,-0.1948817,-0.4970178,0.01357257,0.9893538,0.1412019,24.77997,-24.4853,-26.79937,1001.489
8.661223412,-0.6207037,-0.07534423,-0.3139182,0.0143893,1.001395,0.1497109,24.77997,-24.4853,-26.79937,1001.489
8.681406498,-0.92708,0.4028058,-0.06978528,0.004051521,0.9790634,0.1385792,24.77997,-24.4853,-26.79937,1001.489
8.701589585,-1.04963,1.000493,0.05228116,0.003767915,0.9625111,0.1460374,25.51157,-24.11963,-26.35741,1001.489
8.721773624,-0.06922642,2.1361,0.4795137,0.003993412,0.9839552,0.1338103,25.51157,-24.11963,-26.35741,1001.489
8.741956711,0.9111777,3.690087,0.845713,0.01450385,0.9924432,0.1242311,25.14174,-24.11703,-26.79802,1001.489
8.759617329,0.5435262,3.690087,0.6015801,-0.007157788,0.9885328,0.1441355,25.14174,-24.11703,-26.79802,1001.491
8.779800892,0.5435262,4.108468,0.6626133,0.007841436,0.9851405,0.1177707,25.14174,-24.11703,-26.79802,1001.491
8.799983978,0.4209756,3.809625,0.4795137,0.01243941,1.003511,0.1288324,24.77026,-24.11599,-26.7995,1001.491
8.820168018,0.7886271,2.972862,0.3574472,0.004105873,1.014477,0.1344142,24.77026,-24.11599,-26.7995,1001.491
8.840351105,0.4209756,2.1361,0.296414,0.002095591,0.9816497,0.1191698,25.52127,-24.48895,-26.35728,1001.495
8.860534668,0.3597004,1.777487,0.1743476,0.01219823,0.9836794,0.1250342,25.52127,-24.48895,-26.35728,1001.495
8.880717754,0.1758746,1.538412,0.4184805,0.0003829742,1.003274,0.1346845,25.52127,-24.48895,-26.35728,1001.497
8.900901794,-0.6819789,1.1798,0.3574472,0.00937894,0.9771564,0.1433995,25.14009,-24.11858,-26.35889,1001.497
8.921084881,-0.9883552,1.000493,0.1743476,0.01740675,0.991334,0.1426952,25.14009,-24.11858,-26.35889,1001.497
8.941268444,-0.8045294,1.359106,0.296414,0.01503169,0.9884645,0.1353431,25.51321,-24.11809,-26.79654,1001.497
8.961452007,-0.3143274,1.478643,0.2353808,-0.0007394415,0.9767343,0.1219962,25.51321,-24.11809,-26.79654,1001.495
8.981635571,-0.06922642,1.359106,0.3574472,0.003146747,0.9742877,0.1302141,25.51321,-24.11809,-26.79654,1001.495
9.001818657,-0.007951167,1.359106,0.4795137,0.009799352,0.9827185,0.1206394,25.12874,-23.75081,-25.91989,1001.495
9.022002220,0.1145993,1.897025,0.4184805,0.008212559,0.9943841,0.114547,25.12874,-23.75081,-25.91989,1001.495
9.039662838,0.5435262,1.717718,0.4184805,-0.0007372226,0.9769177,0.1035095,25.14009,-24.11858,-26.35889,1001.495
9.059846401,0.5435262,1.717718,0.4795137,-0.003366878,0.9946918,0.1150567,25.14009,-24.11858,-26.35889,1001.495
9.080029964,0.2371498,1.65795,0.4184805,0.01340945,1.003017,0.1312542,25.14009,-24.11858,-26.35889,1001.495
9.100213051,-0.007951167,1.897025,0.4184805,0.01747881,0.9856569,0.1289583,25.14174,-24.11703,-26.79802,1001.495
9.120396137,0.05332409,2.1361,0.4795137,0.01741396,0.9909607,0.1314963,25.14174,-24.11703,-26.79802,1001.501
9.140580177,0.2984251,2.315406,0.4795137,0.007721306,0.9946006,0.1408277,25.14816,-24.48944,-25.91963,1001.501
9.160763741,0.05332409,2.315406,0.3574472,0.01219666,0.983549,0.1381695,25.14816,-24.48944,-25.91963,1001.499
9.180946827,-0.007951167,2.016562,0.4184805,0.004990459,0.9808461,0.1556437,25.52127,-24.48895,-26.35728,1001.499
9.201130867,0.1145993,1.837256,0.3574472,0.01122005,0.9844696,0.1415952,25.52127,-24.48895,-26.35728,1001.501
9.221313953,0.3597004,1.418875,0.2353808,0.01070789,0.986836,0.1465087,25.52127,-24.48895,-26.35728,1001.501
9.241497517,0.5435262,0.8211871,0.1743476,0.01761688,0.9738007,0.1520796,25.13845,-24.12012,-25.91976,1001.501
9.261680603,0.2984251,0.6418808,0.2353808,0.02567791,0.984908,0.1678584,25.13845,-24.12012,-25.91976,1001.501
9.281864643,0.4822509,0.5821121,-0.1918517,0.03074114,0.9651453,0.1650269,24.76862,-24.11753,-26.36037,1001.501
9.302047730,0.2371498,0.5821121,-0.1918517,0.0199069,0.9832146,0.1834041,24.76862,-24.11753,-26.36037,1001.501
9.319708347,0.1145993,0.7016496,-0.252885,0.01799994,0.9811231,0.1960167,24.76862,-24.11753,-26.36037,1001.502
9.339891434,-0.06922642,0.8211871,-0.008752062,0.01134874,0.9728082,0.1939156,25.1498,-24.4879,-26.35876,1001.502
9.360074997,0.1145993,1.120031,0.05228116,0.01071262,0.985288,0.2048684,25.1498,-24.4879,-26.35876,1001.502
9.380259037,0.1145993,1.359106,-0.008752062,0.006744439,0.99453,0.1953254,25.14174,-24.11703,-26.79802,1001.502
9.400442124,-0.1305017,2.255637,-0.1308185,0.01810594,0.9724337,0.1929251,25.14174,-24.11703,-26.79802,1001.505
9.420625210,-0.3143274,3.211937,0.1133144,0.01262458,0.9868227,0.1995435,25.14174,-24.11703,-26.79802,1001.505
9.440809250,-0.8658047,3.630318,0.2353808,0.004776175,0.9583899,0.1722301,25.51963,-24.49049,-25.91815,1001.505
9.460992813,-0.6207037,3.988931,0.6626133,-0.009038668,0.983749,0.1839437,25.51963,-24.49049,-25.91815,1001.505
9.481175900,-0.06922642,4.885462,0.4184805,0.01109934,0.9938815,0.1695171,25.14174,-24.11703,-26.79802,1001.501
9.501358986,1.217554,4.168237,0.4795137,-0.02254647,0.9850435,0.1309512,25.14174,-24.11703,-26.79802,1001.501
9.521543026,0.8499025,3.749856,0.2353808,0.0008899961,1.000483,0.1725823,25.14174,-24.11703,-26.79802,1001.505
9.541726112,0.4209756,2.076331,0.4184805,-0.00441047,0.9997705,0.1876601,25.1498,-24.4879,-26.35876,1001.505
9.561909676,-0.1305017,2.1361,0.6626133,0.006819484,0.9890991,0.1567775,25.1498,-24.4879,-26.35876,1001.506
9.579570294,-1.233456,2.1361,0.7236465,0.01209057,0.9912616,0.1908736,25.51963,-24.49049,-25.91815,1001.506
9.599753380,-1.539832,2.315406,0.9067462,0.01684179,0.9574457,0.1877644,25.51963,-24.49049,-25.91815,1001.505
9.619937420,-1.172181,2.972862,0.9677794,0.02638712,0.9658662,0.1835378,25.51963,-24.49049,-25.91815,1001.505
9.640120506,0.1145993,2.733787,1.211912,-0.0008247934,0.9822826,0.1975271,25.52934,-24.8598,-25.91802,1001.505
9.660304070,0.9724529,1.837256,0.6015801,0.001914007,1.034401,0.2228839,25.52934,-24.8598,-25.91802,1001.505
9.680487156,1.095003,0.5821121,0.3574472,-0.001967408,0.9975969,0.1662037,26.26258,-24.49259,-25.91519,1001.503
9.700671196,-0.5594285,0.103962,0.1743476,0.01207615,0.9920082,0.2132714,26.26258,-24.49259,-25.91519,1001.503
9.720854282,-1.294731,-0.9718755,0.296414,0.01580315,0.9629346,0.2190161,25.50186,-23.75032,-26.35754,1001.501
9.741037846,-0.6819789,-0.6730318,0.296414,0.03183711,0.9933766,0.2025646,25.50186,-23.75032,-26.35754,1001.501
9.761221409,-0.9883552,-0.7328005,-0.3139182,0.04187936,1.00011,0.2226331,25.50186,-23.75032,-26.35754,1001.501
9.781404972,0.6660767,-1.808638,-0.1918517,0.02822346,0.9341089,0.1639297,25.50022,-23.75186,-25.91841,1001.503
9.801588058,3.423463,0.3430371,-0.252885,0.03785245,1.017102,0.06678101,25.50022,-23.75186,-25.91841,1001.503
9.821771622,1.646481,-0.5534943,0.4184805,-0.001878746,0.9110913,0.1435683,26.25452,-24.12173,-26.35445,1001.503
9.841955185,-0.9883552,1.418875,1.028813,0.03368808,0.9599199,0.2077387,26.25452,-24.12173,-26.35445,1001.503
9.859615803,-2.642787,1.418875,0.6015801,-0.01635087,0.9897356,0.2045096,26.25452,-24.12173,-26.35445,1001.503
9.879799366,-2.826613,0.7614183,0.1743476,-0.05545983,0.9155604,0.1014023,25.12874,-23.75081,-25.91989,1001.503
9.899982452,0.4209756,1.418875,0.5405469,0.008449947,0.9355806,0.08370105,25.12874,-23.75081,-25.91989,1001.503
9.920166492,3.239637,-0.2546505,0.5405469,-0.00844283,0.9350806,0.1576771,25.49216,-23.381,-26.35767,1001.503
9.940349579,3.300913,-0.5534943,0.2353808,0.02572027,0.9419771,0.1485183,25.49216,-23.381,-26.35767,1001.509
9.960533142,0.05332409,-0.4937255,-0.4970178,0.04658368,0.9701736,0.2191142,25.49216,-23.381,-26.35767,1001.509
9.980716228,-1.539832,-1.629332,-0.3749514,0.07743937,1.011638,0.1882614,25.88305,-24.12068,-26.35593,1001.507
10.000900269,-2.581512,-0.07534423,-0.1918517,0.06760216,0.9888906,0.1221365,25.88305,-24.12068,-26.35593,1001.507
10.021083355,0.4822509,0.8809559,-1.961815,0.06963709,1.019876,0.1276126,25.89111,-24.49154,-25.91667,1001.507
10.041266918,1.156279,0.9407246,-0.9852836,0.01579675,0.8076996,0.04223237,25.89111,-24.49154,-25.91667,1001.507
10.061450005,-1.478557,3.211937,0.1743476,0.02365725,0.9928076,0.150014,25.89111,-24.49154,-25.91667,1001.505
10.081634045,-1.539832,2.913093,-0.3749514,-0.04260106,1.047525,0.1521673,26.25288,-24.12328,-25.91532,1001.505
10.101817131,-0.92708,0.9407246,-1.168383,-0.0519141,1.020495,0.1278033,26.25288,-24.12328,-25.91532,1001.509
10.122000217,-0.7432542,-0.374188,0.1133144,-0.07953832,0.9121131,0.1198598,25.51157,-24.11963,-26.35741,1001.509
10.139660835,0.7273519,1.299337,0.6626133,0.01321977,1.058008,0.155699,25.51157,-24.11963,-26.35741,1001.507
10.159844399,1.891582,0.4625746,0.296414,-0.02420707,0.92392,0.08692432,25.51157,-24.11963,-26.35741,1001.507
10.180028439,0.5435262,-0.6730318,0.9677794,-0.04005525,0.995778,0.1949322,25.8814,-24.12223,-25.9168,1001.507
10.200211525,-0.1305017,0.103962,0.6626133,0.0145276,1.029205,0.1794563,25.8814,-24.12223,-25.9168,1001.507
10.220394611,0.4822509,0.4028058,1.211912,-0.01378487,0.9783337,0.1366446,25.88305,-24.12068,-26.35593,1001.507
10.240578651,3.362188,0.103962,2.127411,-0.05157593,0.9148646,0.0308278,25.88305,-24.12068,-26.35593,1001.507
10.260762215,3.117087,0.6418808,1.089846,-0.003451396,0.961633,0.1260806,25.88305,-24.12068,-26.35593,1001.505
10.280945301,1.646481,-0.7925693,1.211912,0.06533591,0.9756244,0.1861067,26.26258,-24.49259,-25.91519,1001.505
10.301128388,-2.09131,0.04419328,1.333979,0.06617206,0.986362,0.1795058,26.26258,-24.49259,-25.91519,1001.503
10.321312428,-2.152585,0.5223433,0.9067462,0.03738844,0.9750758,0.1019574,25.8814,-24.12223,-25.9168,1001.503
10.341495514,0.1145993,0.3430371,0.9067462,0.02799688,1.111773,0.179611,25.8814,-24.12223,-25.9168,1001.503
10.361679077,1.891582,0.8809559,-0.6190843,0.06866006,0.9811166,0.1258738,25.50022,-23.75186,-25.91841,1001.503
10.381863117,1.095003,0.8809559,-0.3139182,0.04899376,1.010736,0.1877988,25.50022,-23.75186,-25.91841,1001.503
10.402046204,-0.5594285,2.016562,0.2353808,-0.0136462,1.045819,0.1720411,25.50022,-23.75186,-25.91841,1001.503
10.419706822,-1.723658,1.956793,1.272946,-0.03017177,0.9778569,0.1113567,25.86363,-23.38205,-26.35619,1001.503
10.439889908,-0.5594285,-0.01557548,0.6015801,-0.03952698,0.9550973,0.04717715,25.86363,-23.38205,-26.35619,1001.503
10.460073471,0.3597004,-0.852338,-0.1918517,0.03768842,1.108042,0.1795229,25.13203,-23.74772,-26.79815,1001.503
10.480257034,2.504334,-2.70517,-0.008752062,0.01776307,1.041909,0.1247187,25.13203,-23.74772,-26.79815,1001.503
10.500440598,1.278829,-2.406326,-0.558051,0.0236364,0.9949623,0.1281602,25.13203,-23.74772,-26.79815,1001.503
10.520623684,-1.784933,-3.302857,-0.7411507,0.05620316,0.974058,0.1349975,25.88305,-24.12068,-26.35593,1001.503
10.540807247,-3.439365,-3.960314,-1.839749,0.04990419,1.01598,0.1489743,25.88305,-24.12068,-26.35593,1001.505
10.560990811,-1.662383,-3.601701,-1.10735,0.05941456,0.9490047,0.07659312,25.49216,-23.381,-26.35767,1001.505
10.581174374,0.6660767,-1.390257,-0.8021839,0.02166355,0.9594128,0.09437165,25.49216,-23.381,-26.35767,1001.505
10.601357460,2.626885,-0.7925693,-0.9242504,-0.008641017,0.9526315,0.09768803,25.49216,-23.381,-26.35767,1001.505
10.621541500,0.2371498,0.7614183,-0.06978528,-0.03691462,1.016155,0.148132,25.49216,-23.381,-26.35767,1001.507
10.641724587,-0.92708,1.717718,-0.06978528,-0.005620069,1.021182,0.1277489,25.49216,-23.381,-26.35767,1001.507
10.661908150,-0.6819789,0.4028058,0.1743476,-0.0350345,1.020876,0.1146482,25.12068,-23.37995,-26.35915,1001.507
10.679568768,-0.8045294,0.2832683,0.05228116,-0.01530812,0.9855564,0.09007747,25.12068,-23.37995,-26.35915,1001.507
10.699751854,-0.1917769,0.1637308,1.150879,0.007713245,0.9958735,0.1101979,25.12068,-23.37995,-26.35915,1001.509
10.719935894,1.585206,0.3430371,0.7236465,0.01593267,0.9948655,0.0775646,25.48407,-23.07324,-26.35777,1001.509
10.740118980,1.340105,-0.613263,0.4795137,0.003399314,0.9931217,0.1369121,25.48407,-23.07324,-26.35777,1001.507
10.760302544,0.6660767,-1.390257,-0.1308185,0.04237997,1.040312,0.1270839,25.50351,-23.74877,-26.79667,1001.507
10.780486107,-0.1917769,-1.748869,-0.252885,0.03039734,0.9948967,0.09603429,25.50351,-23.74877,-26.79667,1001.511
10.800669670,-0.5594285,-2.22702,-0.7411507,0.03604506,1.00579,0.1298161,25.50351,-23.74877,-26.79667,1001.511
10.820852756,-0.9883552,-1.987945,-1.10735,0.04277831,0.9676672,0.1241858,25.87169,-23.75291,-25.91693,1001.511
10.841036320,-0.7432542,-1.689101,-0.7411507,0.0559843,0.9918389,0.1494607,25.87169,-23.75291,-25.91693,1001.509
10.861219883,-0.436878,-1.330488,-0.4359846,0.02042461,0.9813069,0.132274,26.24482,-23.75242,-26.35458,1001.509
10.881403446,-0.8045294,-0.4339568,-0.4970178,-0.01244964,0.9875626,0.1363387,26.24482,-23.75242,-26.35458,1001.512
10.901586533,-0.4981532,-0.4937255,-0.6190843,-0.005794594,0.9565493,0.09776139,25.50186,-23.75032,-26.35754,1001.512
10.921769619,-0.1917769,-0.613263,-0.4970178,-0.02862425,0.9697313,0.1024351,25.50186,-23.75032,-26.35754,1001.512
10.941953659,1.156279,-1.450026,-0.252885,-0.01814919,1.020758,0.102943,25.50186,-23.75032,-26.35754,1001.512
10.959614277,0.9724529,-0.9121068,-0.1308185,-0.00678398,0.9979985,0.1185332,25.86363,-23.38205,-26.35619,1001.512
10.979797840,0.3597004,-1.390257,0.1133144,-0.004785155,0.9921714,0.1227943,25.86363,-23.38205,-26.35619,1001.512
10.999980927,-0.6819789,-1.390257,-0.06978528,0.007569053,1.007223,0.1381582,25.13039,-23.74927,-26.35902,1001.512
11.020164967,-0.4981532,-1.509794,0.05228116,0.01397519,0.9963543,0.11993,25.13039,-23.74927,-26.35902,1001.512
11.040348053,-0.5594285,-0.5534943,0.1133144,0.02364877,0.9544,0.1142196,25.13039,-23.74927,-26.35902,1001.511
11.060531139,-0.436878,0.4625746,0.3574472,0.0160775,0.9816303,0.1420185,25.88305,-24.12068,-26.35593,1001.511
11.080714703,-0.5594285,1.000493,0.1133144,0.02428098,0.9812434,0.1444317,25.88305,-24.12068,-26.35593,1001.511
11.100898743,-0.6207037,1.299337,0.1743476,0.01235373,0.9703557,0.1495862,25.49216,-23.381,-26.35767,1001.511
11.121081829,-0.436878,1.120031,0.4184805,0.008096545,1.003215,0.1521891,25.49216,-23.381,-26.35767,1001.511
11.141264915,0.1758746,0.5821121,0.1743476,0.006856043,0.986304,0.1455306,25.49216,-23.381,-26.35767,1001.511
11.161448479,-0.06922642,-0.135113,0.1133144,0.008812262,0.983742,0.1625076,25.86199,-23.3836,-25.91706,1001.511
11.181632519,0.05332409,-1.151182,0.05228116,0.01046702,1.006675,0.148848,25.86199,-23.3836,-25.91706,1001.511
11.201815605,-0.1917769,-1.450026,-0.06978528,0.01410128,0.9854475,0.1450164,26.25616,-24.12019,-26.79358,1001.511
11.221998692,0.1758746,-1.330488,-0.1918517,0.01894787,0.9836492,0.1381615,26.25616,-24.12019,-26.79358,1001.511
11.239659309,0.4822509,-0.7925693,-0.1918517,0.02262276,0.9986393,0.1467248,26.25616,-24.12019,-26.79358,1001.511
11.259843350,-0.1917769,0.04419328,-0.008752062,0.009618426,0.9968482,0.161306,26.61629,-23.75347,-26.3531,1001.511
11.280026436,-0.7432542,0.7016496,0.1133144,0.02912495,0.979228,0.1594689,26.61629,-23.75347,-26.3531,1001.511
11.300209999,-0.5594285,1.239568,0.4184805,0.01687923,0.9943697,0.1777903,25.50351,-23.74877,-26.79667,1001.511
11.320393086,0.1145993,1.418875,0.2353808,0.007349542,0.9853038,0.1494028,25.50351,-23.74877,-26.79667,1001.511
11.340577126,0.1758746,1.060262,0.296414,0.004056514,0.9785067,0.145867,25.50351,-23.74877,-26.79667,1001.511
11.360760212,0.4209756,-0.01557548,0.2353808,-0.009198924,0.9976488,0.150158,26.22702,-23.07534,-26.35482,1001.511
11.380943775,0.4822509,-1.509794,0.2353808,-0.002946496,0.9992818,0.1414226,26.22702,-23.07534,-26.35482,1001.511
11.401127815,-0.1305017,-2.525863,-0.008752062,0.01574846,0.9690783,0.1369047,25.86363,-23.38205,-26.35619,1001.511
11.421310902,-0.06922642,-2.884476,-0.1918517,0.03050912,0.9847462,0.1425456,25.86363,-23.38205,-26.35619,1001.511
11.441493988,-0.06922642,-2.286788,-0.252885,0.03864833,0.9897114,0.1426319,25.13039,-23.74927,-26.35902,1001.511
11.461677551,0.5435262,-1.031644,-0.1308185,0.03301335,0.9769648,0.1492001,25.13039,-23.74927,-26.35902,1001.511
11.481861115,0.9111777,0.04419328,-0.008752062,0.02154355,1.008529,0.1250257,25.13039,-23.74927,-26.35902,1001.511
11.499521732,0.2371498,0.6418808,-0.1308185,0.01964663,1.005329,0.1517274,25.86528,-23.38051,-26.79532,1001.511
11.519705296,-0.3143274,1.478643,0.1133144,0.009209546,0.9912702,0.1368669,25.86528,-23.38051,-26.79532,1001.511
11.539888382,-0.3143274,1.060262,0.05228116,-0.00640916,0.9669324,0.1247301,25.49216,-23.381,-26.35767,1001.511
11.560071945,0.9111777,0.04419328,0.1133144,-0.0164717,1.001077,0.1356389,25.49216,-23.381,-26.35767,1001.509
11.580255509,1.462655,-1.210951,-0.1308185,-0.01592281,0.9959299,0.1180191,25.49216,-23.381,-26.35767,1001.509
11.600439072,0.1758746,-2.107482,-0.1918517,0.01442597,0.9986094,0.1374911,25.87334,-23.75137,-26.35606,1001.507
11.620622158,-0.3756027,-2.764938,0.05228116,0.02081129,0.9889286,0.1460487,25.87334,-23.75137,-26.35606,1001.507
11.640806198,-0.7432542,-2.525863,-0.252885,0.02326945,0.9850943,0.1454826,26.60823,-23.38261,-26.79236,1001.507
11.660989285,-0.6207037,-2.286788,-0.008752062,0.04618064,0.9650782,0.146026,26.60823,-23.38261,-26.79236,1001.507
11.681172848,0.05332409,-1.689101,-0.3139182,0.02576283,0.978354,0.1448589,26.60823,-23.38261,-26.79236,1001.507
11.701355934,0.4822509,-1.569563,-0.558051,0.02949172,0.9890815,0.143606,25.4938,-23.37946,-26.7968,1001.507
11.721539974,0.05332409,-1.210951,-0.4359846,0.02380352,0.9806603,0.153666,25.4938,-23.37946,-26.7968,1001.505
11.741723061,-0.3756027,-0.613263,-0.3749514,0.01498194,0.9921076,0.1587714,25.10289,-22.70287,-26.35938,1001.505
11.761906624,-0.4981532,-0.135113,-0.3139182,0.007904305,0.9796727,0.1317734,25.10289,-22.70287,-26.35938,1001.507
11.779567242,-0.3143274,-0.1948817,-0.06978528,0.001283443,0.9690181,0.1213539,25.10289,-22.70287,-26.35938,1001.507
11.799750328,-0.007951167,0.4625746,-0.1918517,-0.000287785,0.9790618,0.1322599,25.87639,-23.7485,-27.17159,1001.505
11.819934368,-0.06922642,0.3430371,0.1133144,0.004393878,0.9907771,0.1305386,25.87639,-23.7485,-27.17159,1001.505
11.840117454,-0.2530522,-0.07534423,0.1743476,0.001711681,0.9732879,0.1311696,25.48571,-23.0717,-26.79691,1001.5
11.860300541,-0.2530522,-0.4937255,0.05228116,0.003069804,0.9805312,0.1356902,25.48571,-23.0717,-26.79691,1001.5
11.880484581,0.1145993,-0.852338,0.1133144,0.003846853,0.9960785,0.1325907,25.48571,-23.0717,-26.79691,1001.5
11.900668144,0.2984251,-1.210951,0.1743476,0.01208596,0.9928192,0.1315409,25.86669,-23.37918,-27.17171,1001.504
11.920851231,-0.007951167,-1.390257,-0.06978528,0.01505529,0.9865367,0.1343317,25.86669,-23.37918,-27.17171,1001.504
11.941034317,0.1758746,-1.928176,-0.008752062,0.02313475,0.9962586,0.1432708,25.86363,-23.38205,-26.35619,1001.504
11.961218357,0.1758746,-1.808638,-0.1308185,0.01940721,0.985642,0.1333344,25.86363,-23.38205,-26.35619,1001.504
11.981401920,0.2984251,-1.569563,-0.252885,0.01980099,0.9928806,0.1368832,25.86363,-23.38205,-26.35619,1001.504
12.001585007,0.05332409,-0.9121068,-0.252885,0.02136372,0.9831042,0.1478789,25.87498,-23.74982,-26.79519,1001.504
12.021769047,-0.007951167,-0.613263,0.05228116,0.008754677,0.9886772,0.1533602,25.87498,-23.74982,-26.79519,1001.504
12.041952133,0.05332409,-1.031644,-0.1308185,-0.002312715,0.986609,0.1499294,25.50351,-23.74877,-26.79667,1001.504
12.059612751,-0.2530522,-1.330488,-0.06978528,0.003584681,0.9774197,0.1570377,25.50351,-23.74877,-26.79667,1001.498
12.079795837,-0.2530522,-1.629332,-0.06978528,0.0123005,0.9746811,0.153078,25.50351,-23.74877,-26.79667,1001.498
12.099979401,-0.06922642,-1.868407,-0.008752062,0.01709844,0.9766176,0.1604081,25.13344,-23.7464,-27.17454,1001.498
12.120163441,-0.3756027,-1.210951,-0.1918517,0.03592101,0.9752796,0.1768979,25.13344,-23.7464,-27.17454,1001.498
12.140346527,-0.3143274,-0.7328005,-0.252885,0.03778671,0.9807472,0.1658119,25.12068,-23.37995,-26.35915,1001.5
12.160529614,-0.5594285,0.5821121,-0.1308185,0.02685989,0.9670303,0.1645833,25.12068,-23.37995,-26.35915,1001.5
12.180713177,-0.3143274,0.5223433,-0.1308185,0.02045714,0.9781787,0.154595,25.86528,-23.38051,-26.79532,1001.504
12.200897217,-0.436878,0.7614183,-0.008752062,0.007867512,0.9824485,0.1449662,25.86528,-23.38051,-26.79532,1001.504
12.221080303,-0.1917769,0.3430371,-0.008752062,-0.006598555,0.9823014,0.1381724,25.86528,-23.38051,-26.79532,1001.505
12.241263390,0.2984251,-0.9121068,-0.3749514,-0.01351934,0.9963003,0.1331071,25.48877,-23.06882,-27.61243,1001.505
12.261447430,0.5435262,-1.808638,-0.1918517,-0.005780536,0.9944485,0.1359786,25.48877,-23.06882,-27.61243,1001.501
12.281630516,0.1145993,-1.928176,-0.3139182,0.007607978,1.003654,0.1560912,25.12233,-23.37841,-26.79828,1001.501
12.301814079,-0.06922642,-2.047713,-0.1918517,0.001055388,0.9870083,0.1635568,25.12233,-23.37841,-26.79828,1001.501
12.321997166,-0.007951167,-2.346557,-0.252885,0.02288484,0.9766746,0.1633202,25.12233,-23.37841,-26.79828,1001.501
12.339657784,-0.06922642,-2.525863,-0.1918517,0.02893409,0.9944762,0.1850735,25.86669,-23.37918,-27.17171,1001.501
12.359841824,-0.3143274,-2.286788,-0.558051,0.0492273,0.9912608,0.1976313,25.86669,-23.37918,-27.17171,1001.501
12.380024910,-0.1305017,-2.346557,-0.4970178,0.03543064,0.9755685,0.1958812,25.86669,-23.37918,-27.17171,1001.501
12.400208473,0.1758746,-2.107482,-0.6190843,0.0282864,0.9682925,0.186016,25.86669,-23.37918,-27.17171,1001.501
12.420391560,0.2371498,-2.22702,-0.7411507,0.03367169,0.9614744,0.1975512,25.86669,-23.37918,-27.17171,1001.501
12.440575600,-0.007951167,-0.852338,-0.9242504,0.02980142,0.9623279,0.2034128,25.84889,-22.70211,-27.17195,1001.501
12.460758686,0.2371498,-0.6730318,-0.4359846,0.01255292,0.9925336,0.209875,25.84889,-22.70211,-27.17195,1001.496
12.480942249,0.1145993,-0.07534423,-0.06978528,0.002392622,0.9557875,0.1867797,25.86528,-23.38051,-26.79532,1001.496
12.501125813,-0.1305017,1.120031,0.1133144,-0.01135342,0.9751993,0.212,25.86528,-23.38051,-26.79532,1001.494
12.521309376,0.05332409,0.04419328,0.2353808,-0.009321108,0.9672933,0.1816721,25.86528,-23.38051,-26.79532,1001.494
12.541492462,-1.417282,-0.01557548,0.4184805,-0.02331225,0.9665499,0.2356891,25.86833,-23.37764,-27.61085,1001.494
12.561676502,-1.233456,-0.7328005,0.1743476,0.013414,0.9618078,0.1825033,25.86833,-23.37764,-27.61085,1001.494
12.581859589,-0.5594285,-1.629332,-0.1308185,0.0199048,0.9830408,0.2009178,25.50492,-23.74745,-27.17307,1001.498
12.599520207,0.1145993,-1.031644,0.2353808,0.04267931,1.013672,0.2243601,25.50492,-23.74745,-27.17307,1001.498
12.619703770,0.6660767,-0.9121068,0.1133144,0.04151092,0.9910883,0.2034783,25.50492,-23.74745,-27.17307,1001.498
12.639886856,-0.6819789,0.7614183,-0.3139182,0.02826231,0.9692097,0.2400453,25.4938,-23.37946,-26.7968,1001.498
12.660070896,-1.846209,0.7614183,-0.252885,0.02242395,0.9339377,0.2213521,25.4938,-23.37946,-26.7968,1001.494
12.680253983,-0.436878,1.65795,0.1133144,0.002602918,1.01659,0.2609707,26.24787,-23.74955,-27.17011,1001.494
12.700437546,3.546014,2.255637,-0.8632172,0.09842183,1.070901,0.2044877,26.24787,-23.74955,-27.17011,1001.492
12.720620632,2.381784,1.837256,-0.252885,0.0002549976,0.9327942,0.2057912,26.24646,-23.75087,-26.79371,1001.492
12.740804672,0.4822509,3.032631,0.296414,-0.01282777,0.9777397,0.1979414,26.24646,-23.75087,-26.79371,1001.498
12.760987759,-0.3143274,1.837256,-0.9852836,0.01149545,1.079635,0.2198724,26.24646,-23.75087,-26.79371,1001.498
12.781171322,-1.784933,1.418875,-1.595616,0.02418129,0.9488685,0.1841778,26.23007,-23.07247,-27.17034,1001.496
12.801354885,-2.887888,2.016562,-0.008752062,0.0238201,0.860185,0.1361974,26.23007,-23.07247,-27.17034,1001.496
12.821538448,-0.7432542,3.630318,-0.4359846,0.02965038,1.133633,0.2252937,25.50656,-23.7459,-27.6122,1001.496
12.841721535,2.381784,4.228006,-0.1918517,0.0190486,1.133107,0.2136208,25.50656,-23.7459,-27.6122,1001.496
12.861904621,3.546014,4.228006,0.9677794,-0.0292767,1.062092,0.16898,25.50656,-23.7459,-27.6122,1001.496
12.879565239,0.7886271,3.929162,-0.6190843,0.01206378,0.9542491,0.1609459,26.22037,-22.70316,-27.17047,1001.496
12.899749279,-2.949163,1.65795,-0.558051,-0.00213271,1.010109,0.2233823,26.22037,-22.70316,-27.17047,1001.494
12.919932842,-1.968759,1.956793,1.089846,-0.009754983,0.9654662,0.07215458,25.87498,-23.74982,-26.79519,1001.494
12.940115929,-1.172181,3.451012,-0.4970178,-0.02588224,1.022115,0.1010349,25.87498,-23.74982,-26.79519,1001.494
12.960299015,-1.662383,2.733787,1.150879,0.02070258,0.998363,0.1228794,25.87498,-23.74982,-26.79519,1001.494
12.980483055,-1.110906,3.869394,0.845713,-0.01180781,1.053877,0.1439759,25.48712,-23.07037,-27.1733,1001.494
13.000666618,1.033728,0.8809559,-0.4970178,0.02045486,1.097898,0.1506388,25.48712,-23.07037,-27.1733,1001.494
13.020849705,0.9111777,1.239568,-0.6801175,0.04143639,0.8408868,0.05647598,26.23007,-23.07247,-27.17034,1001.494
13.041033745,-0.007951167,0.4625746,0.3574472,0.02848673,0.9915339,0.1879354,26.23007,-23.07247,-27.17034,1001.498
13.061216831,-0.92708,0.9407246,-0.6801175,0.04580107,1.154335,0.2140017,26.23007,-23.07247,-27.17034,1001.498
13.081399918,-0.436878,0.7016496,-1.473549,0.05803441,1.022141,0.1262147,26.60799,-23.38283,-26.72963,1001.498
13.101583481,0.2984251,0.5821121,0.1133144,0.02480072,1.018179,0.1339705,26.60799,-23.38283,-26.72963,1001.498
13.121767521,-1.294731,1.359106,-0.4359846,-0.02429925,0.9704893,0.1301792,26.97303,-23.07457,-27.16739,1001.5
13.141950607,-1.662383,0.3430371,-1.473549,-0.005510177,1.051491,0.1497584,26.97303,-23.07457,-27.16739,1001.5
13.159611225,-0.1305017,1.418875,-1.351483,0.03520797,0.957267,0.03786524,26.97303,-23.07457,-27.16739,1001.5
13.179794312,-0.06922642,3.630318,-0.06978528,-0.04416078,0.9782593,0.09873397,26.22866,-23.0738,-26.79395,1001.5
13.199978352,-2.152585,2.375175,0.6626133,-0.05042826,1.016967,0.1437886,26.22866,-23.0738,-26.79395,1001.506
13.220161915,-3.745742,1.65795,0.2353808,-0.05665958,0.9745234,0.1147357,25.85719,-23.07275,-26.79543,1001.506
13.240345001,-1.662383,1.837256,1.333979,0.005422637,0.9864113,0.08373833,25.85719,-23.07275,-26.79543,1001.506
13.260528088,2.871986,4.228006,0.6015801,0.0633055,0.9865959,0.05397523,26.61934,-23.7506,-27.16863,1001.506
13.280712128,5.813198,1.897025,-0.9852836,-0.001900477,0.7971445,-0.04358982,26.61934,-23.7506,-27.16863,1001.506
13.300895214,-0.1305017,1.239568,-0.008752062,-0.01371111,1.049179,0.2728312,26.61934,-23.7506,-27.16863,1001.506
13.321078777,-1.662383,3.57055,1.211912,0.02980135,1.162491,0.1494705,26.23007,-23.07247,-27.17034,1001.506
13.341262817,-0.92708,3.809625,0.3574472,0.0284456,0.9581838,0.03302744,26.23007,-23.07247,-27.17034,1001.506
13.361445904,-0.8045294,2.554481,-0.008752062,-0.01090638,0.900763,0.09666481,26.61934,-23.7506,-27.16863,1001.506
13.381628990,1.40138,4.467081,0.1743476,0.01836979,1.031846,0.1143003,26.61934,-23.7506,-27.16863,1001.506
13.401812553,1.891582,6.9176,0.4795137,0.06256621,1.046676,0.1018777,26.61934,-23.7506,-27.16863,1001.506
13.421996594,-1.110906,6.678525,0.5405469,-0.02260935,0.9508648,0.1083785,27.3445,-23.07562,-27.16591,1001.506
13.439657211,-2.704062,6.379681,0.7846798,-0.02167273,0.9921011,0.1534726,27.3445,-23.07562,-27.16591,1001.506
13.459840298,-2.581512,5.48315,0.4795137,-0.02463903,0.9986348,0.1253843,26.97806,-23.3852,-26.35175,1001.506
13.480023384,-1.417282,5.423381,0.845713,0.005349229,0.9919773,0.1086645,26.97806,-23.3852,-26.35175,1001.504
13.500206947,0.2371498,4.885462,0.296414,0.01575045,0.9692425,0.120364,26.97806,-23.3852,-26.35175,1001.504
13.520390511,0.6048014,3.929162,0.1743476,0.00276935,0.9654946,0.1368528,26.97303,-23.07457,-27.16739,1001.502
13.540574074,1.217554,2.853325,-0.06978528,0.0454808,0.9839254,0.1011475,26.97303,-23.07457,-27.16739,1001.502
13.560757160,1.769031,3.57055,-0.06978528,0.02016412,1.043049,0.1111133,26.97162,-23.0759,-26.79099,1001.501
13.580941200,0.6048014,2.434943,-0.3139182,0.004766508,0.9604995,0.106096,26.97162,-23.0759,-26.79099,1001.501
13.601124287,-1.478557,2.076331,-0.06978528,0.009762665,0.9458571,0.1242892,26.97162,-23.0759,-26.79099,1001.501
13.621307850,-1.417282,2.434943,0.7846798,0.002915579,1.032636,0.1581315,26.97971,-23.38366,-26.79088,1001.501
13.641490936,-0.92708,2.674018,0.296414,-0.009648312,0.9558629,0.1123511,26.97971,-23.38366,-26.79088,1001.499
13.661674977,-0.6819789,1.1798,0.1743476,-0.02354321,0.9475629,0.1467548,26.97806,-23.3852,-26.35175,1001.499
13.681858063,0.4822509,0.8211871,0.05228116,0.01509389,0.9839106,0.1060576,26.97806,-23.3852,-26.35175,1001.497
13.699518681,1.278829,1.239568,-0.3749514,0.03021187,0.9699753,0.1169511,26.97806,-23.3852,-26.35175,1001.497
13.719702244,1.033728,1.060262,0.296414,0.03042481,0.9923205,0.111554,27.65265,-23.07782,-26.78828,1001.497
13.739885330,0.7886271,2.1361,0.1743476,-0.009683157,1.038091,0.1266298,27.65265,-23.07782,-26.78828,1001.497
13.760069370,0.05332409,1.598181,-0.1308185,0.008623304,1.000116,0.1234184,27.6688,-23.75645,-26.34891,1001.497
13.780252457,-1.233456,0.2832683,-0.1308185,-0.002527846,0.9650522,0.1246872,27.6688,-23.75645,-26.34891,1001.497
13.800436020,-0.9883552,-0.2546505,0.1743476,-0.00941131,0.9763189,0.1020507,27.6688,-23.75645,-26.34891,1001.495
13.820619583,0.1758746,0.1637308,-0.1308185,0.009535115,1.004504,0.1220442,26.96997,-23.07744,-26.35186,1001.495
13.840803146,0.2984251,-0.07534423,-0.252885,0.009368894,0.9782652,0.1293105,26.96997,-23.07744,-26.35186,1001.501
13.860986233,-0.3756027,0.04419328,0.1133144,0.02132229,0.9864656,0.150865,27.65265,-23.07782,-26.78828,1001.501
13.881170273,-0.6207037,0.7614183,-0.008752062,0.008622428,1.000044,0.1307158,27.65265,-23.07782,-26.78828,1001.501
13.901353359,-0.4981532,1.478643,-0.008752062,0.005817266,0.9927503,0.1291158,27.35259,-23.38338,-27.1658,1001.501
13.921536922,0.05332409,1.956793,0.1743476,-0.007537785,0.9804944,0.1235404,27.35259,-23.38338,-27.1658,1001.501
13.941720009,-0.1917769,2.494712,0.4184805,0.004116551,0.9737741,0.1345817,27.35259,-23.38338,-27.1658,1001.501
13.961904049,-0.436878,2.61425,0.6626133,0.006374804,0.986379,0.1372608,27.35118,-23.38471,-26.7894,1001.501
13.979564667,0.05332409,3.271706,0.6626133,0.006924926,0.9813334,0.1094247,27.35118,-23.38471,-26.7894,1001.501
13.999747753,0.5435262,3.271706,0.6015801,-0.005302893,0.9950463,0.1252849,26.96997,-23.07744,-26.35186,1001.499
14.019931316,0.7886271,2.61425,0.5405469,-0.002901557,0.99621,0.109247,26.96997,-23.07744,-26.35186,1001.499
14.040114403,0.2984251,2.434943,0.4795137,-0.002832877,0.9902529,0.1237266,26.96997,-23.07744,-26.35186,1001.499
14.060298443,-0.007951167,1.65795,0.4795137,0.0009669088,0.9952069,0.1184666,26.95221,-22.33727,-26.79125,1001.496
14.080481529,0.05332409,1.060262,0.4184805,-0.001821287,0.9864069,0.1221892,26.95221,-22.33727,-26.79125,1001.496
14.100664616,-0.1305017,0.3430371,0.296414,0.01024996,0.984959,0.13966,27.65265,-23.07782,-26.78828,1001.496
14.120848656,-0.1305017,-0.374188,0.05228116,0.01419665,0.9778186,0.1327007,27.65265,-23.07782,-26.78828,1001.496
14.141032219,0.1145993,-0.6730318,0.2353808,0.01737764,0.993775,0.1407972,27.65265,-23.07782,-26.78828,1001.497
14.161215305,0.2371498,-0.6730318,0.05228116,0.01294366,1.00146,0.1409558,27.65265,-23.07782,-26.78828,1001.497
14.181398392,0.1758746,-0.4339568,-0.1308185,0.01560097,0.9811243,0.1434689,27.65265,-23.07782,-26.78828,1001.497
14.201582432,-0.06922642,0.04419328,-0.008752062,0.009714379,0.9892675,0.1441253,27.36229,-23.7527,-27.16567,1001.497
14.221765995,-0.1305017,0.6418808,0.1133144,0.007837582,0.9848219,0.1498791,27.36229,-23.7527,-27.16567,1001.497
14.241949081,0.1758746,1.000493,0.05228116,0.007750652,0.9921789,0.1407797,27.36229,-23.7527,-27.16567,1001.497
14.259609699,0.1758746,0.5821121,0.05228116,0.007456533,0.9766966,0.1380408,27.35118,-23.38471,-26.7894,1001.496
14.279793739,0.2984251,1.060262,0.1133144,0.001097465,0.9836999,0.1552193,27.35118,-23.38471,-26.7894,1001.496
14.299976826,0.4209756,0.8211871,0.1743476,0.004885745,0.9896417,0.1480325,26.98941,-23.75298,-26.79075,1001.497
14.320159912,0.05332409,0.7614183,0.1133144,0.009614367,0.9974822,0.1462344,26.98941,-23.75298,-26.79075,1001.497
14.340343475,0.1145993,0.3430371,0.1743476,0.001105321,0.9833796,0.138669,26.98941,-23.75298,-26.79075,1001.497
14.360527515,-0.007951167,0.4028058,0.1743476,0.001656463,0.9774491,0.1512021,27.3398,-23.08004,-25.91125,1001.497
14.380710602,0.05332409,0.4625746,-0.06978528,0.008296452,0.9867761,0.148944,27.3398,-23.08004,-25.91125,1001.499
14.400893688,0.1758746,0.5223433,0.1743476,0.009213371,0.990617,0.1538845,26.96027,-22.70813,-26.35199,1001.499
14.421077728,0.2984251,0.4625746,0.1133144,0.01213005,0.988708,0.1553022,26.96027,-22.70813,-26.35199,1001.499
14.441261292,0.3597004,0.8211871,0.3574472,0.002356804,0.9992591,0.1516327,27.35118,-23.38471,-26.7894,1001.499
14.461444378,0.1758746,0.8211871,0.4184805,0.001404258,0.9982907,0.1501551,27.35118,-23.38471,-26.7894,1001.499
14.481627464,-0.1305017,0.7016496,0.4184805,0.00592963,0.9826483,0.1707621,27.35118,-23.38471,-26.7894,1001.499
14.501811504,-0.007951167,0.1637308,0.296414,0.0006662503,0.979184,0.1702147,27.33339,-22.70763,-26.78964,1001.503
14.521994591,-0.3143274,0.1637308,0.2353808,0.008852529,0.980284,0.1692513,27.33339,-22.70763,-26.78964,1001.503
14.539655209,-0.1917769,-0.07534423,0.1743476,0.02578861,0.9756378,0.1744869,27.6591,-23.38713,-26.34904,1001.505
14.559838772,0.05332409,-0.374188,0.1743476,0.01950894,0.9766003,0.1657566,27.6591,-23.38713,-26.34904,1001.505
14.580021858,0.2371498,-0.374188,-0.06978528,0.01692752,0.990606,0.1665242,27.6591,-23.38713,-26.34904,1001.507
14.600205898,-0.007951167,0.04419328,-0.1308185,0.02190777,0.9775566,0.1706379,27.36089,-23.75402,-26.78928,1001.507
14.620388985,0.05332409,0.4028058,-0.1308185,0.01996469,0.9792657,0.141966,27.36089,-23.75402,-26.78928,1001.507
14.640572548,0.1758746,0.5821121,-0.1918517,0.01226429,0.9775051,0.1614059,26.97162,-23.0759,-26.79099,1001.507
14.660756111,0.4822509,0.4028058,-0.252885,0.01054168,1.000243,0.162345,26.97162,-23.0759,-26.79099,1001.508
14.680939675,-0.1917769,0.04419328,-0.06978528,-0.005295942,0.9936817,0.165158,26.97162,-23.0759,-26.79099,1001.508
14.701122761,-0.8045294,-0.07534423,-0.06978528,-0.002302612,0.9855051,0.163532,27.34954,-23.38626,-26.35027,1001.507
14.721306324,-0.6207037,-0.4339568,-0.06978528,0.007324314,0.9870965,0.1640359,27.34954,-23.38626,-26.35027,1001.507
14.741489887,-0.3143274,-0.374188,-0.008752062,0.008883628,0.978007,0.1546086,26.98777,-23.75452,-26.35162,1001.507
14.761673450,0.4209756,-0.01557548,0.1133144,0.01904677,0.9753428,0.1452958,26.98777,-23.75452,-26.35162,1001.507
14.781856537,0.2984251,0.7614183,-0.06978528,0.02172299,0.9933068,0.1456474,26.98777,-23.75452,-26.35162,1001.507
14.799517155,0.4209756,1.060262,-0.06978528,0.01595413,0.991792,0.1431929,26.96997,-23.07744,-26.35186,1001.507
14.819701195,0.05332409,1.120031,0.1133144,0.001993419,0.9896857,0.1392791,26.96997,-23.07744,-26.35186,1001.508
14.839884281,0.05332409,1.478643,0.1133144,0.005452247,0.9830418,0.1303839,27.34145,-23.0785,-26.35038,1001.508
14.860067844,0.05332409,1.598181,0.3574472,0.004498827,0.9820008,0.1362038,27.34145,-23.0785,-26.35038,1001.508
14.880250931,-0.1305017,0.9407246,0.2353808,-0.002277441,0.9837077,0.1493853,27.34145,-23.0785,-26.35038,1001.508
14.900434971,-0.1305017,0.4625746,0.2353808,0.007027129,0.9723303,0.137955,27.34954,-23.38626,-26.35027,1001.51
14.920618057,-0.007951167,0.1637308,0.4184805,0.005850204,0.989656,0.1480314,27.34954,-23.38626,-26.35027,1001.51
14.940801620,0.3597004,0.04419328,0.296414,-0.001612901,1.008376,0.1547384,27.3398,-23.08004,-25.91125,1001.51
14.960985184,0.2371498,-0.5534943,0.1743476,-0.008364698,1.008227,0.1596113,27.3398,-23.08004,-25.91125,1001.51
14.981168747,-0.5594285,-1.091413,0.1743476,0.006840684,0.9869735,0.1757123,26.60658,-23.38416,-26.35323,1001.51
15.001351833,-0.3756027,-1.270719,0.2353808,0.02326683,0.9848771,0.1673747,26.60658,-23.38416,-26.35323,1001.51
15.021535397,0.05332409,-1.270719,0.05228116,0.02283202,0.9810337,0.1634066,26.60658,-23.38416,-26.35323,1001.51
15.041718960,0.2984251,-1.151182,-0.06978528,0.02240139,0.9765661,0.1735371,26.60014,-23.07485,-26.79247,1001.51
15.061902523,0.2984251,-0.613263,-0.252885,0.02630194,0.973368,0.1598437,26.60014,-23.07485,-26.79247,1001.508
15.079563141,0.2984251,0.2234995,-0.008752062,0.02307343,1.000885,0.1652589,27.35118,-23.38471,-26.7894,1001.508
15.099746227,-0.1305017,0.5223433,-0.1918517,0.02039792,0.9829788,0.1590694,27.35118,-23.38471,-26.7894,1001.508
15.119929314,-0.1305017,1.120031,-0.008752062,0.0117351,0.9813728,0.1614832,27.35118,-23.38471,-26.7894,1001.508
15.140113354,0.1758746,1.538412,0.05228116,0.001949473,0.9928396,0.1631843,27.35924,-23.75557,-26.35015,1001.508
15.160296917,0.6048014,2.255637,0.1133144,0.02100317,0.9727952,0.1608133,27.35924,-23.75557,-26.35015,1001.508
15.180480003,0.4209756,2.853325,0.05228116,0.01550902,0.9880661,0.1762078,27.3398,-23.08004,-25.91125,1001.508
15.200664043,0.1758746,2.913093,-0.008752062,-0.01841704,0.961984,0.1660096,27.3398,-23.08004,-25.91125,1001.508
15.220847130,-0.1305017,3.391243,0.3574472,0.01643105,0.9913598,0.1874631,27.3398,-23.08004,-25.91125,1001.508
15.241030693,-0.3143274,3.211937,0.3574472,-0.002637991,0.9733988,0.1623197,26.97806,-23.3852,-26.35175,1001.507
15.261214256,-1.04963,2.494712,0.3574472,0.005597551,0.9698452,0.1909459,26.97806,-23.3852,-26.35175,1001.507
15.281397820,-0.9883552,1.777487,0.05228116,0.006216303,0.9984846,0.1866459,27.65101,-23.07937,-26.34915,1001.507
15.301580906,-0.4981532,0.8211871,-0.06978528,0.0223596,0.9798986,0.1794422,27.65101,-23.07937,-26.34915,1001.507
15.321763992,-0.06922642,0.2234995,-0.1308185,0.01418228,0.9785701,0.1546119,27.65101,-23.07937,-26.34915,1001.507
15.341948032,0.9111777,0.3430371,-0.3139182,0.03499994,0.9730351,0.1087327,27.6413,-22.71005,-26.34928,1001.507
15.359608650,0.9111777,0.6418808,-0.3139182,0.03595758,1.012131,0.1742211,27.6413,-22.71005,-26.34928,1001.507
15.379792214,0.6660767,0.04419328,-0.8021839,-0.01724887,0.9855198,0.1397114,27.33174,-22.70918,-26.35051,1001.507
15.399975300,-0.6207037,-0.1948817,-0.252885,-0.0127489,0.9716555,0.176411,27.33174,-22.70918,-26.35051,1001.507
15.420158386,-1.110906,-0.135113,-0.3139182,0.004232051,1.002607,0.2076536,27.33174,-22.70918,-26.35051,1001.507
15.440342426,-0.6207037,-0.135113,0.05228116,-0.03929771,0.9739443,0.1502196,27.67045,-23.7549,-26.78804,1001.505
15.460525513,-0.007951167,0.1637308,0.3574472,-0.0009567513,0.9936737,0.1724502,27.67045,-23.7549,-26.78804,1001.505
15.480709076,0.6660767,-0.07534423,0.6015801,-0.01477648,0.9799526,0.1673331,27.6591,-23.38713,-26.34904,1001.511
15.500893116,0.4209756,-0.07534423,0.6626133,-0.01158899,0.9954778,0.1700686,27.6591,-23.38713,-26.34904,1001.511
15.521076203,0.05332409,-0.135113,0.7236465,0.01127549,1.019002,0.1773128,27.6591,-23.38713,-26.34904,1001.507
15.541259289,-0.2530522,-0.9121068,0.1743476,0.01879345,0.956446,0.1449222,28.03057,-23.38818,-26.34756,1001.507
15.561442852,-1.846209,-1.748869,0.845713,-0.0006908492,0.9710556,0.2060633,28.03057,-23.38818,-26.34756,1001.511
15.581626892,-0.5594285,-1.091413,0.4184805,0.01587592,1.037576,0.1679419,27.65101,-23.07937,-26.34915,1001.511
15.601809979,-0.1305017,-2.107482,-0.06978528,0.01352925,0.9529141,0.1511856,27.65101,-23.07937,-26.34915,1001.511
15.621993065,-0.6819789,-2.466094,-0.008752062,0.01409961,0.9446937,0.1991942,27.65101,-23.07937,-26.34915,1001.511
15.639653683,-0.2530522,-3.063782,-0.4359846,0.0182815,0.9975064,0.2055857,27.65101,-23.07937,-26.34915,1001.512
15.659837723,-0.3756027,-4.13962,-0.558051,0.03364973,0.9635373,0.1849408,27.65101,-23.07937,-26.34915,1001.512
15.680020809,-0.5594285,-4.677539,-1.046317,0.03501667,0.9299238,0.2051968,28.02248,-23.08042,-26.34767,1001.512
15.700204373,-0.92708,-4.318926,-0.8632172,0.02529626,0.9757625,0.210011,28.02248,-23.08042,-26.34767,1001.512
15.720387459,-0.3756027,-3.123551,-0.4970178,0.04589947,0.9874035,0.1907476,27.6688,-23.75645,-26.34891,1001.514
15.740571499,-0.4981532,-2.167251,-0.1918517,-0.0201489,0.9849265,0.1951749,27.6688,-23.75645,-26.34891,1001.514
15.780938148,0.4822509,-3.541932,-1.046317,-0.01972326,0.9899511,0.1777565,27.34954,-23.38626,-26.35027,1001.508
15.801122189,-0.1917769,-3.541932,-0.7411507,0.02500414,1.039738,0.2078715,27.34954,-23.38626,-26.35027,1001.508
15.821305275,0.4209756,-2.645401,-0.4970178,0.01785865,1.033328,0.159583,27.6413,-22.71005,-26.34928,1001.508
15.841488361,-0.3143274,-2.764938,-0.558051,0.0192777,0.9556502,0.1770204,27.6413,-22.71005,-26.34928,1001.508
15.861671925,-1.723658,-3.721238,-0.8021839,-0.04421519,0.9012557,0.192581,27.6413,-22.71005,-26.34928,1001.508
15.881855488,-1.907484,-4.079851,-0.558051,0.010693,0.9875441,0.1727984,27.66051,-23.38581,-26.72544,1001.507
15.899516106,-0.007951167,-3.243088,-0.06978528,0.03673604,0.9494729,0.09317963,27.66051,-23.38581,-26.72544,1001.507
15.919699669,1.462655,-2.525863,0.4184805,-0.003687326,1.020557,0.1447643,27.65406,-23.0765,-27.16468,1001.507
15.939882755,0.8499025,-2.346557,-0.6190843,0.02887484,1.000243,0.1409083,27.65406,-23.0765,-27.16468,1001.507
15.960066795,0.2371498,-4.13962,-0.8021839,0.003637107,1.012674,0.1689268,27.65406,-23.0765,-27.16468,1001.507
15.980249882,-0.8658047,-4.13962,-0.1308185,0.04637072,1.028089,0.1930119,27.65101,-23.07937,-26.34915,1001.507
16.000433445,1.278829,-4.079851,-0.8632172,0.00949735,1.086492,0.1606475,27.65101,-23.07937,-26.34915,1001.507
16.020616531,3.239637,-4.378695,-0.9852836,0.009356424,0.9801431,0.08652802,27.65242,-23.07804,-26.72555,1001.507
16.040800571,1.952857,-2.286788,-0.6190843,0.02233353,1.022237,0.1608167,27.65242,-23.07804,-26.72555,1001.497
16.060983658,0.7273519,-1.748869,-0.6801175,-0.03368704,0.9885607,0.1505007,27.65242,-23.07804,-26.72555,1001.497
16.081167221,-1.601108,-3.601701,-0.4359846,-0.01643348,0.9578031,0.1508398,27.66074,-23.38559,-26.78817,1001.501
16.101350784,-3.316815,-4.13962,-0.8021839,-0.006841894,0.9622909,0.1523743,27.66074,-23.38559,-26.78817,1001.501
16.121534348,-1.723658,-3.960314,-0.8632172,0.04326449,1.006677,0.1487999,27.65265,-23.07782,-26.78828,1001.501
16.141717434,1.217554,-2.70517,-0.06978528,0.03445808,1.056116,0.1828792,27.65265,-23.07782,-26.78828,1001.501
16.161900997,1.646481,-1.450026,-0.1918517,-0.02341617,0.9763801,0.1726275,26.96997,-23.07744,-26.35186,1001.501
16.179561615,-0.2530522,-2.047713,0.4184805,-0.009402694,0.9741225,0.1769415,26.96997,-23.07744,-26.35186,1001.501
16.199745178,-2.030035,-2.884476,-0.1918517,0.0004318273,0.998587,0.1676796,26.96997,-23.07744,-26.35186,1001.501
16.219928742,0.1145993,-3.243088,-0.9852836,0.02100814,1.012852,0.1280316,27.33174,-22.70918,-26.35051,1001.501
16.240111828,3.178362,-4.13962,-0.6190843,-0.009688689,0.8809898,0.0403142,27.33174,-22.70918,-26.35051,1001.501
16.260294914,2.136683,-3.781007,-0.6190843,-0.01163346,0.8806201,0.1235161,26.96997,-23.07744,-26.35186,1001.497
16.280478954,1.40138,-2.824707,-0.7411507,0.0321883,1.085113,0.1382039,26.96997,-23.07744,-26.35186,1001.497
16.300662518,0.1145993,-4.020082,-0.8021839,4.462533E-05,1.032508,0.06908777,26.96997,-23.07744,-26.35186,1001.495
16.320845604,-2.458961,-5.394764,-0.9852836,-0.005938213,0.9283002,0.1122867,27.34954,-23.38626,-26.35027,1001.495
16.341029644,-3.010439,-5.394764,-1.046317,0.01091222,1.009439,0.1639863,27.34954,-23.38626,-26.35027,1001.499
16.361212730,-0.5594285,-3.840776,-1.29045,0.03550818,1.050606,0.1049147,27.36089,-23.75402,-26.78928,1001.499
16.381396294,1.40138,-3.063782,-0.8632172,-0.003423733,1.000657,0.05094536,27.36089,-23.75402,-26.78928,1001.499
16.401579857,-0.2530522,-2.047713,-0.4359846,-0.01002483,0.986789,0.1202625,27.36089,-23.75402,-26.78928,1001.499
16.421763420,-1.233456,-1.928176,-0.6190843,-0.01923686,0.9912728,0.09408908,27.35924,-23.75557,-26.35015,1001.499
16.441946507,-1.172181,-1.987945,-0.6190843,-0.0154068,0.9542354,0.07242719,27.35924,-23.75557,-26.35015,1001.499
16.459607124,-0.8045294,-2.824707,-0.8632172,-0.01071544,0.9648131,0.08771385,27.35118,-23.38471,-26.7894,1001.495
16.479790211,-0.3756027,-3.422395,-0.7411507,0.01992322,0.9835944,0.09631256,27.35118,-23.38471,-26.7894,1001.495
16.499974251,0.4822509,-1.928176,-0.8632172,0.04311051,0.9804799,0.1030291,27.35118,-23.38471,-26.7894,1001.495
16.520157814,1.462655,-0.852338,-0.6801175,0.02406087,0.9998902,0.1204718,26.97947,-23.38388,-26.72815,1001.495
16.540340901,1.52393,0.4625746,-0.4970178,-0.009594485,0.9912325,0.1125644,26.97947,-23.38388,-26.72815,1001.493
16.560524941,1.217554,1.120031,-0.3749514,-0.009936191,1.019219,0.1238237,27.66215,-23.38426,-27.16457,1001.493
16.580708027,0.9724529,0.4625746,0.05228116,-0.04261431,0.9700468,0.09856916,27.66215,-23.38426,-27.16457,1001.491
16.600891590,1.033728,0.8211871,0.5405469,-0.02310693,0.9911736,0.1471307,27.66215,-23.38426,-27.16457,1001.491
16.621074677,0.7273519,0.2832683,0.3574472,-0.03714017,0.9947057,0.1608457,26.98111,-23.38234,-27.16728,1001.491
16.641258717,-0.1917769,-1.031644,0.6015801,-0.0228671,0.9712477,0.1535483,26.98111,-23.38234,-27.16728,1001.491
16.661441803,-0.5594285,-1.509794,0.9067462,-0.001410101,0.991206,0.1762947,27.34309,-23.07695,-26.78951,1001.491
16.681624890,-0.007951167,-1.210951,1.028813,0.01232298,0.9726616,0.16131,27.34309,-23.07695,-26.78951,1001.491
16.701808930,0.7886271,-0.3144192,0.7846798,0.03407096,0.9691668,0.1553698,27.35118,-23.38471,-26.7894,1001.491
16.721992493,1.217554,0.7016496,0.7236465,0.03304118,0.9744176,0.1618009,27.35118,-23.38471,-26.7894,1001.491
16.739653110,1.156279,1.478643,0.7846798,0.02693127,1.000942,0.1652543,27.35118,-23.38471,-26.7894,1001.493
16.759836197,0.5435262,1.359106,0.845713,0.0066008,1.006895,0.1697813,26.97806,-23.3852,-26.35175,1001.493
16.780019283,0.1145993,0.9407246,0.6626133,-0.001824499,0.9861414,0.1489463,26.97806,-23.3852,-26.35175,1001.495
16.800203323,0.2984251,-0.2546505,0.4795137,-0.009479201,0.9813717,0.1298862,26.6274,-24.12146,-26.72937,1001.495
16.820386887,0.2371498,-0.9718755,0.4184805,0.006592727,0.9685208,0.1305815,26.6274,-24.12146,-26.72937,1001.497
16.840569973,0.05332409,-2.466094,-0.008752062,-0.005052673,0.9740406,0.1428725,26.6274,-24.12146,-26.72937,1001.497
16.860753059,-0.7432542,-3.362626,-0.252885,0.02160542,1.002979,0.1472988,26.23816,-23.38023,-27.17024,1001.502
16.880937099,-0.92708,-3.601701,0.05228116,0.02769385,0.9785565,0.127343,26.23816,-23.38023,-27.17024,1001.502
16.901120186,-1.110906,-2.884476,-0.252885,0.03175287,0.9622809,0.1133905,26.99911,-24.12229,-26.79063,1001.502
16.921303749,-0.3756027,-2.466094,-0.1918517,0.03237523,0.9902476,0.1280541,26.99911,-24.12229,-26.79063,1001.502
16.941487789,0.1145993,-1.509794,-0.1308185,0.008730119,0.9914948,0.1135159,26.99911,-24.12229,-26.79063,1001.504
16.961670876,0.3597004,-1.091413,-0.1918517,-0.001901824,0.993323,0.1087018,26.98941,-23.75298,-26.79075,1001.504
16.981853962,0.05332409,-1.151182,0.05228116,-0.01269987,0.9689216,0.1101811,26.98941,-23.75298,-26.79075,1001.504
16.999514580,-0.007951167,-1.031644,-0.06978528,-0.002297415,0.9859347,0.1202342,26.98941,-23.75298,-26.79075,1001.504
17.019698143,-0.3143274,-1.330488,0.05228116,-0.00131123,0.9838668,0.1347895,26.98941,-23.75298,-26.79075,1001.504
17.039881706,-0.6819789,-1.868407,0.1743476,-0.007986784,0.9774169,0.1400241,26.98941,-23.75298,-26.79075,1001.504
17.060065269,-0.6207037,-2.167251,-0.008752062,0.01605449,0.9836063,0.1381649,26.60155,-23.07352,-27.16887,1001.504
17.080248356,-0.007951167,-2.107482,-0.3749514,0.03280363,0.9945318,0.1364102,26.60155,-23.07352,-27.16887,1001.504
17.100432396,0.1758746,-2.346557,-0.3749514,0.03680715,0.9823934,0.1449227,27.6591,-23.38713,-26.34904,1001.504
17.120615482,0.05332409,-1.629332,-0.558051,0.03103348,0.9814498,0.133721,27.6591,-23.38713,-26.34904,1001.504
17.140799046,-0.007951167,-0.9718755,-0.4359846,0.0189484,0.9836926,0.1337831,27.6591,-23.38713,-26.34904,1001.508
17.160982132,0.05332409,-0.6730318,-0.558051,0.01106327,0.9976871,0.127746,26.98941,-23.75298,-26.79075,1001.508
17.181166172,0.1758746,-0.3144192,-0.6190843,0.003853949,0.9956955,0.1223647,26.98941,-23.75298,-26.79075,1001.508
17.201349258,-0.1305017,-0.4937255,-0.3749514,-0.007638207,0.9886753,0.1290549,26.98111,-23.38234,-27.16728,1001.508
17.221532822,-0.06922642,-0.5534943,-0.3749514,-0.006047908,0.9772991,0.1059578,26.98111,-23.38234,-27.16728,1001.508
17.241716385,-0.007951167,-0.7925693,-0.252885,-0.006679382,0.9891932,0.1271174,26.98111,-23.38234,-27.16728,1001.508
17.261899948,-0.06922642,-1.270719,-0.008752062,-0.004319307,0.9937329,0.1126062,26.61794,-23.75193,-26.79223,1001.506
17.279560566,-0.1917769,-1.689101,-0.3139182,0.005846203,0.9902948,0.1324733,26.61794,-23.75193,-26.79223,1001.506
17.299743652,-0.1305017,-1.689101,-0.1918517,0.003958604,0.9868951,0.1304624,26.98941,-23.75298,-26.79075,1001.506
17.319927216,-0.1917769,-1.390257,-0.252885,0.009380692,0.9773012,0.1288048,26.98941,-23.75298,-26.79075,1001.506
17.340110779,0.05332409,-1.151182,-0.3749514,0.01651465,0.9856667,0.126527,26.98941,-23.75298,-26.79075,1001.506
17.360294342,0.1145993,-0.6730318,-0.4359846,0.01939698,0.9867363,0.1207048,26.97971,-23.38366,-26.79088,1001.506
17.380477429,0.1758746,-0.4339568,-0.252885,0.005329167,0.9932276,0.129126,26.97971,-23.38366,-26.79088,1001.506
17.400661469,0.1145993,-0.374188,-0.06978528,-0.004187116,0.9823613,0.1357371,26.98941,-23.75298,-26.79075,1001.506
17.420844555,0.05332409,-0.1948817,-0.1308185,-0.005579988,0.9780626,0.1273821,26.98941,-23.75298,-26.79075,1001.506
17.441028118,0.1145993,-0.2546505,-0.1308185,0.001081142,0.9852591,0.1445452,26.97971,-23.38366,-26.79088,1001.506
17.461211681,0.05332409,-0.613263,-0.06978528,0.007791561,0.9887739,0.142172,26.97971,-23.38366,-26.79088,1001.506
17.481395245,-0.06922642,-0.3144192,-0.008752062,0.01301961,0.9951347,0.14375,26.97971,-23.38366,-26.79088,1001.505
17.501578331,-0.1305017,-0.1948817,-0.06978528,0.01359152,0.9880118,0.1299838,27.34954,-23.38626,-26.35027,1001.505
17.521761894,0.05332409,0.103962,-0.252885,0.01603578,0.9849676,0.147437,27.34954,-23.38626,-26.35027,1001.505
17.541945458,-0.1305017,0.2234995,-0.008752062,0.002533,0.9847383,0.1503718,26.22866,-23.0738,-26.79395,1001.505
17.559606075,-0.007951167,0.103962,0.05228116,0.008819766,0.9833927,0.1488762,26.22866,-23.0738,-26.79395,1001.508
17.579789639,0.05332409,0.1637308,0.05228116,-0.002388433,0.9929538,0.1451892,26.22866,-23.0738,-26.79395,1001.508
17.599972725,0.05332409,0.04419328,-0.06978528,0.005920812,0.9838583,0.1464568,26.97303,-23.07457,-27.16739,1001.507
17.620156288,0.2371498,0.1637308,-0.06978528,0.00828489,0.9877593,0.1475037,26.97303,-23.07457,-27.16739,1001.507
17.640339852,-0.1305017,-0.3144192,-0.008752062,-0.00204912,0.9647697,0.1538761,27.36089,-23.75402,-26.78928,1001.507
17.660523415,0.05332409,-0.2546505,0.05228116,0.009147991,0.9958772,0.1608009,27.36089,-23.75402,-26.78928,1001.507
17.680706501,0.1758746,-0.3144192,-0.008752062,0.01063077,0.9930649,0.1534443,27.36089,-23.75402,-26.78928,1001.505
17.700890541,0.2984251,-0.4937255,-0.1308185,0.01033671,0.9775875,0.1502189,26.23007,-23.07247,-27.17034,1001.505
17.721073627,0.05332409,-0.3144192,-0.008752062,0.01314693,0.9843292,0.1586201,26.23007,-23.07247,-27.17034,1001.505
17.741257191,-0.007951167,-0.4339568,-0.008752062,0.006971736,0.976477,0.159447,26.60823,-23.38261,-26.79236,1001.505
17.761440754,0.05332409,-0.4339568,-0.06978528,0.01025901,0.9837682,0.1620194,26.60823,-23.38261,-26.79236,1001.503
17.781624317,-0.06922642,-0.2546505,-0.008752062,0.006965634,0.976942,0.1614025,26.60823,-23.38261,-26.79236,1001.503
17.801807404,0.1758746,-0.613263,0.1133144,0.009771964,0.9843323,0.1532727,26.61794,-23.75193,-26.79223,1001.501
17.821990967,0.2371498,-0.5534943,-0.06978528,0.004384565,0.9909766,0.1592512,26.61794,-23.75193,-26.79223,1001.501
17.839651108,-0.06922642,-0.374188,-0.008752062,0.002460874,0.9904106,0.1645952,26.61794,-23.75193,-26.79223,1001.501
17.859835148,-0.1305017,-0.852338,0.05228116,0.002596803,0.9793477,0.1565907,26.61794,-23.75193,-26.79223,1001.501
17.880018711,-0.1305017,-0.7925693,-0.008752062,0.01126456,0.9803921,0.1619511,26.61794,-23.75193,-26.79223,1001.5
17.900201797,0.05332409,-0.9718755,-0.1918517,0.01855088,0.976145,0.1613698,26.60964,-23.38129,-27.16876,1001.5
17.920384884,0.2371498,-0.7925693,-0.1918517,0.01988012,0.9858487,0.1620464,26.60964,-23.38129,-27.16876,1001.5
17.940568924,0.2984251,-0.6730318,-0.1918517,0.01352844,0.9924932,0.1665666,27.34954,-23.38626,-26.35027,1001.5
17.960752487,0.2984251,-0.5534943,-0.1308185,0.007342913,0.9857255,0.1557368,27.34954,-23.38626,-26.35027,1001.5
17.980935574,0.1145993,-0.4937255,-0.1308185,0.0001309626,0.9835166,0.1722476,26.23675,-23.38156,-26.79384,1001.5
18.001119614,0.1145993,-0.9121068,-0.008752062,0.002459998,0.9903382,0.1718926,26.23675,-23.38156,-26.79384,1001.5
18.021302700,0.2371498,-1.210951,0.1743476,-0.002613988,0.9715048,0.1579029,26.23675,-23.38156,-26.79384,1001.5
18.041485786,0.1145993,-2.22702,-0.1308185,-0.002384898,0.9922763,0.1646393,26.23007,-23.07247,-27.17034,1001.498
18.061669827,0.2371498,-3.123551,-0.1918517,0.005888721,0.9860532,0.1693698,26.23007,-23.07247,-27.17034,1001.498
18.081853390,-0.06922642,-3.960314,-0.252885,0.01041766,0.9707052,0.1603009,26.61794,-23.75193,-26.79223,1001.502
18.102036476,-0.3756027,-4.259158,-0.252885,0.007353426,0.9846554,0.1659339,26.61794,-23.75193,-26.79223,1001.502
18.119697094,-0.06922642,-3.960314,-0.3139182,0.01470373,0.9750323,0.1701119,26.61794,-23.75193,-26.79223,1001.502
18.139880180,-0.1305017,-3.840776,-0.1918517,0.01893716,0.9837329,0.1785499,26.98111,-23.38234,-27.16728,1001.502
18.160064220,-0.3756027,-3.302857,-0.252885,0.02470735,0.9853587,0.169815,26.98111,-23.38234,-27.16728,1001.502
18.180247784,-0.436878,-3.482163,-0.4359846,0.007818924,0.986188,0.1586648,26.98111,-23.38234,-27.16728,1001.502
18.200430870,0.1758746,-3.781007,-0.4970178,-0.004511808,0.9691993,0.1432624,26.98111,-23.38234,-27.16728,1001.502
18.220614910,0.6048014,-3.840776,-0.252885,-0.01114393,0.9991989,0.1375403,26.98111,-23.38234,-27.16728,1001.502
18.240797997,0.2984251,-4.020082,-0.008752062,-0.01155579,0.9933745,0.1379122,26.61934,-23.7506,-27.16863,1001.5
18.260981083,-0.436878,-4.438464,0.1743476,-0.02093521,0.9715226,0.1287349,26.61934,-23.7506,-27.16863,1001.5
18.281164646,-0.5594285,-4.13962,0.3574472,-0.001185246,1.012597,0.169419,26.24787,-23.74955,-27.17011,1001.5
18.301348686,0.1145993,-3.960314,0.6015801,0.01649622,0.9870523,0.1333666,26.24787,-23.74955,-27.17011,1001.5
18.321531773,-0.007951167,-3.422395,0.4184805,0.00812918,0.9604499,0.1649671,26.24787,-23.74955,-27.17011,1001.498
18.341714859,0.3597004,-2.944245,0.296414,0.02798987,0.9932261,0.1631537,26.61794,-23.75193,-26.79223,1001.498
18.361898899,0.05332409,-2.824707,0.1743476,0.02935508,0.9604397,0.1488784,26.61794,-23.75193,-26.79223,1001.5
18.379559040,-0.436878,-3.063782,-0.008752062,0.02484176,0.9741705,0.1744593,26.23816,-23.38023,-27.17024,1001.5
18.399743080,-0.6819789,-3.422395,-0.3139182,0.03098145,0.9849047,0.1761225,26.23816,-23.38023,-27.17024,1001.5
18.419926167,-0.6207037,-4.13962,-0.4970178,0.01238737,0.9673193,0.1626639,26.23816,-23.38023,-27.17024,1001.5
18.440109253,-0.436878,-4.976382,-0.8021839,0.01219123,0.9831001,0.1834131,26.60964,-23.38129,-27.16876,1001.5
18.460293293,-0.3756027,-5.753376,-0.9242504,0.03732126,0.9395726,0.1640245,26.60964,-23.38129,-27.16876,1001.5
18.480476380,-0.06922642,-6.291295,-1.29045,0.02343616,0.9707585,0.1743938,26.60155,-23.07352,-27.16887,1001.5
18.500659943,0.4822509,-6.590139,-1.534583,0.04244756,0.9936499,0.1908763,26.60155,-23.07352,-27.16887,1001.498
18.520843983,0.7886271,-6.53037,-1.351483,0.02862254,0.9804615,0.1809039,25.86528,-23.38051,-26.79532,1001.498
18.541027069,0.6048014,-5.753376,-1.229416,0.004697772,0.9645126,0.1898685,25.86528,-23.38051,-26.79532,1001.502
18.561210156,0.8499025,-5.394764,-1.229416,-0.00948573,1.020478,0.1929433,25.86528,-23.38051,-26.79532,1001.502
18.581393719,0.1758746,-5.57407,-0.7411507,-0.01523757,0.9778149,0.1867549,25.8586,-23.07142,-27.17182,1001.502
18.601577759,-0.3143274,-5.155689,-0.6801175,-0.0007083993,0.9725135,0.2056055,25.8586,-23.07142,-27.17182,1001.502
18.621760845,0.1145993,-6.171758,-0.6190843,0.01214084,0.9480153,0.1544968,25.88774,-24.11627,-27.61059,1001.498
18.641943932,-0.1305017,-5.872914,-0.6801175,0.0005434979,0.9101053,0.1488977,25.88774,-24.11627,-27.61059,1001.498
18.659604550,0.1145993,-6.111989,-0.3139182,0.01556678,0.9831454,0.1838957,25.88774,-24.11627,-27.61059,1001.502
18.679788590,0.7273519,-5.454533,-0.558051,0.00323547,1.005755,0.1819283,26.23007,-23.07247,-27.17034,1001.502
18.699971676,-0.007951167,-5.275226,-0.1308185,-0.009305893,0.9656423,0.2015895,26.23007,-23.07247,-27.17034,1001.5
18.720155239,-0.8045294,-4.558001,-0.1308185,0.008807698,0.9437187,0.1918838,25.11565,-23.06932,-27.17478,1001.5
18.740338325,0.1145993,-5.454533,-0.4359846,-0.0005106147,0.9965146,0.1798046,25.11565,-23.06932,-27.17478,1001.502
18.760522366,1.278829,-6.351064,-0.8632172,0.02812423,1.02168,0.1768545,25.11565,-23.06932,-27.17478,1001.502
18.780705452,2.075408,-7.068289,-0.008752062,0.04957384,0.9240286,0.1374232,24.7539,-23.37449,-27.61528,1001.496
18.800889015,-0.007951167,-6.05222,-1.351483,0.02583402,0.9706656,0.236185,24.7539,-23.37449,-27.61528,1001.496
18.821073055,-0.8045294,-8.203895,-1.10735,0.04398663,0.9857963,0.2033699,26.23981,-23.37869,-27.60937,1001.487
18.841256142,-1.907484,-8.084357,-1.473549,0.01000271,0.9646252,0.1864568,26.23981,-23.37869,-27.60937,1001.487
18.861439228,-0.92708,-8.980888,-1.351483,0.02691039,1.002125,0.1925266,26.23981,-23.37869,-27.60937,1001.487
18.881622791,0.6660767,-8.92112,-2.144915,0.01279376,1.051983,0.2251623,25.13508,-23.74485,-27.61367,1001.487
18.901806354,0.2371498,-8.383201,-1.229416,0.00423168,0.9232851,0.1934325,25.13508,-23.74485,-27.61367,1001.489
18.921989918,0.4209756,-7.128057,0.296414,-0.03924766,0.9683864,0.2221244,25.87968,-23.74541,-28.04985,1001.489
18.939650536,-1.233456,-6.231526,-1.10735,-0.04905235,1.020832,0.2445866,25.87968,-23.74541,-28.04985,1001.489
18.959833622,-0.8658047,-8.323432,-0.3749514,-0.04714151,1.024214,0.1507395,25.87968,-23.74541,-28.04985,1001.489
18.980017662,-1.478557,-6.649908,-0.06978528,-0.0067499,0.9940287,0.176845,25.4985,-23.37505,-28.05145,1001.489
19.000200748,-0.436878,-6.649908,0.3574472,-0.03205264,0.8947518,0.08489878,25.4985,-23.37505,-28.05145,1001.489
19.020384312,0.05332409,-8.562507,-0.6801175,0.01697655,0.9878719,0.1002942,25.5082,-23.74436,-28.05133,1001.483
19.040567398,0.05332409,-10.59464,-0.8021839,0.05172562,1.103866,0.1818526,25.5082,-23.74436,-28.05133,1001.483
19.060751438,1.462655,-11.37164,-1.29045,0.05922969,1.081746,0.1760513,25.5082,-23.74436,-28.05133,1001.483
19.080934525,1.585206,-10.77395,-2.083881,0.04521145,1.08458,0.1625035,25.49041,-23.06728,-28.05156,1001.483
19.101118088,0.6048014,-10.59464,-1.229416,0.02069247,0.9994668,0.1092768,25.49041,-23.06728,-28.05156,1001.487
19.121301651,-2.826613,-8.502738,-2.144915,0.01591785,0.9153178,0.1348673,25.13508,-23.74485,-27.61367,1001.487
19.141485214,-4.909971,-8.442969,-2.389048,0.06037434,1.026954,0.1817774,25.13508,-23.74485,-27.61367,1001.489
19.161668301,-4.971247,-6.948751,-2.083881,0.001626522,0.9401758,0.1475449,24.75719,-23.3714,-28.49354,1001.489
19.181852341,-0.436878,-6.53037,-2.511114,-0.008893748,0.9734297,0.1010195,24.75719,-23.3714,-28.49354,1001.487
19.199512482,1.52393,-3.422395,-1.473549,-0.0536738,1.045985,0.1443677,24.75719,-23.3714,-28.49354,1001.487
19.219696045,2.749435,-3.123551,-0.3139182,-0.05184729,0.9360618,0.09158448,24.75696,-23.37162,-28.43081,1001.489
19.239879608,-1.356007,-2.645401,-1.229416,-0.0596769,1.022302,0.2271141,24.75696,-23.37162,-28.43081,1001.489
19.260062695,-1.294731,-5.992451,-1.229416,0.01228915,1.016297,0.1096223,24.74746,-23.06518,-28.05452,1001.49
19.280246735,-0.436878,-5.633839,-0.1918517,-0.01118867,0.887228,-0.05347137,24.74746,-23.06518,-28.05452,1001.49
19.300429821,-1.110906,-4.438464,-0.3139182,0.04022637,0.9405859,0.06623635,24.74746,-23.06518,-28.05452,1001.492
19.320613384,-0.2530522,-5.693607,-0.4970178,0.01993614,1.022369,0.0951336,24.08421,-23.74033,-28.057,1001.492
19.340796948,2.259233,-5.932683,-0.6190843,0.01908097,0.9752608,0.007103486,24.08421,-23.74033,-28.057,1001.496
19.360980511,1.891582,-4.976382,-0.252885,-0.02988588,0.9945975,0.08492535,24.08562,-23.73901,-28.43339,1001.496
19.381163597,1.278829,-4.079851,-0.252885,0.003943704,1.067864,0.1252527,24.08562,-23.73901,-28.43339,1001.496
19.401347160,-1.601108,-2.70517,0.296414,-0.02007959,0.9413149,0.09796743,24.08562,-23.73901,-28.43339,1001.496
19.421530724,-2.704062,-3.004013,-0.1308185,0.008786011,0.9864196,0.1367715,24.42819,-22.69499,-28.05588,1001.496
19.441714287,-1.356007,-3.243088,-0.008752062,0.02775088,0.9745448,0.09222927,24.42819,-22.69499,-28.05588,1001.496
19.461897373,1.646481,-3.960314,0.1133144,-0.008065715,0.9854353,0.06427535,24.76831,-23.73939,-28.86981,1001.496
19.479557991,1.217554,-1.629332,-0.1918517,0.0308319,0.9590741,0.09337832,24.76831,-23.73939,-28.86981,1001.496
19.499741078,0.7886271,-1.808638,0.4184805,0.02278902,1.023911,0.188098,24.76831,-23.73939,-28.86981,1001.496
19.519925118,-0.6207037,-0.7328005,-0.008752062,0.004098943,0.9752272,0.1346105,24.09556,-24.1081,-28.49599,1001.496
19.540108681,-0.436878,-1.031644,0.4795137,-0.009174337,0.9958032,0.1408763,24.09556,-24.1081,-28.49599,1001.496
19.560291767,0.2371498,-1.390257,-0.008752062,-0.004641127,1.020454,0.1048635,24.07756,-23.36814,-28.87265,1001.502
19.580475807,0.8499025,-2.406326,0.1133144,0.00513618,1.009269,0.1236047,24.07756,-23.36814,-28.87265,1001.502
19.600658894,0.1758746,-2.466094,0.1743476,0.01284098,0.9707781,0.1077474,24.07756,-23.36814,-28.87265,1001.502
19.620842457,-0.7432542,-2.764938,-0.558051,0.04215568,0.9793231,0.1205247,23.71274,-23.73928,-28.05847,1001.502
19.641026020,-1.172181,-3.063782,-0.8021839,0.004129233,1.012529,0.1353488,23.71274,-23.73928,-28.05847,1001.496
19.661209583,-1.539832,-3.482163,-0.8632172,0.05776712,0.9643827,0.1357769,23.71438,-23.73774,-28.4976,1001.496
19.681392670,-0.436878,-3.601701,-0.6190843,-0.002804172,0.9877781,0.12903,23.71438,-23.73774,-28.4976,1001.498
19.701575756,1.156279,-4.079851,-0.4970178,-0.007788221,0.962806,0.05020265,23.70303,-23.36996,-28.0586,1001.498
19.721759796,0.8499025,-4.438464,-0.6190843,-0.003416159,1.03802,0.1431631,23.70303,-23.36996,-28.0586,1001.502
19.741943359,-0.007951167,-3.960314,-0.06978528,0.03571079,0.9541284,0.1107904,23.70303,-23.36996,-28.0586,1001.502
19.759603977,-1.172181,-3.482163,-0.3749514,0.04316278,0.9751053,0.1564472,23.70468,-23.36842,-28.49773,1001.502
19.779787064,-1.478557,-3.721238,-0.9852836,-0.002850775,0.9916818,0.1261878,23.70468,-23.36842,-28.49773,1001.502
19.799971104,-1.723658,-3.422395,-0.9242504,0.03289701,0.9867387,0.1406351,23.71438,-23.73774,-28.4976,1001.504
19.820154190,-1.233456,-2.286788,-0.3749514,0.02466378,0.9895135,0.1416753,23.71438,-23.73774,-28.4976,1001.504
19.840337276,-0.8045294,-1.091413,-0.252885,-0.01952038,0.9737583,0.1497003,23.71438,-23.73774,-28.4976,1001.5
19.860520840,0.5435262,-1.629332,-0.06978528,-0.0350706,0.9840626,0.1134331,23.71415,-23.73795,-28.43487,1001.5
19.880704880,0.9724529,-1.390257,0.1743476,-0.02470061,1.004209,0.1006787,23.71415,-23.73795,-28.43487,1001.5
19.900887966,1.095003,-1.509794,0.6015801,-0.005431025,1.005784,0.1172256,23.72879,-24.10263,-29.75213,1001.5
19.921071053,0.7886271,-1.629332,0.4795137,0.006873095,0.9857746,0.1012407,23.72879,-24.10263,-29.75213,1001.5
19.941255093,0.05332409,-1.509794,0.3574472,0.02179879,0.9879387,0.1007751,23.72879,-24.10263,-29.75213,1001.5
19.961438656,-0.1917769,-1.569563,0.1133144,0.03357606,0.9719901,0.06540789,22.97284,-23.73431,-28.87696,1001.5
19.981621742,0.2984251,-1.509794,-0.1918517,0.03308371,1.011762,0.109502,22.97284,-23.73431,-28.87696,1001.5
20.001805782,0.4822509,-1.928176,-0.3139182,0.04115276,0.9432697,0.09013086,23.36373,-24.47399,-28.87522,1001.5
20.021988869,0.2984251,-1.091413,-0.6801175,0.003300762,1.001457,0.1268589,23.36373,-24.47399,-28.87522,1001.5
20.039649487,0.3597004,-0.852338,-0.4359846,0.01849198,0.9819413,0.1142857,23.36373,-24.47399,-28.87522,1001.496
20.059832573,0.1145993,-0.5534943,-0.1918517,-0.01486155,0.9874641,0.1426659,23.00055,-24.84357,-28.50017,1001.496
20.080016136,0.05332409,-0.4339568,-0.1308185,0.004005384,0.9830058,0.1318451,23.00055,-24.84357,-28.50017,1001.496
20.100200176,-0.007951167,-0.4937255,-0.1918517,-0.0004413212,0.9915776,0.1402933,23.35238,-24.10622,-28.43622,1001.496
20.120383263,-0.1305017,-0.7328005,0.1133144,-0.004077584,0.9729944,0.1520955,23.35238,-24.10622,-28.43622,1001.498
20.140566349,-0.3756027,-0.4339568,-0.06978528,0.01605663,0.9828131,0.1692908,23.35238,-24.10622,-28.43622,1001.498
20.160750389,-0.1917769,-0.7925693,0.2353808,0.01719346,0.9689597,0.1510112,22.59995,-23.73458,-28.50204,1001.498
20.180933952,-0.1917769,-0.613263,-0.06978528,0.02077973,0.9911669,0.1645833,22.59995,-23.73458,-28.50204,1001.498
20.201117039,-0.06922642,-0.7925693,-0.008752062,0.0122863,0.9754471,0.1735298,23.35261,-24.106,-28.49895,1001.498
20.221300125,-0.3143274,-0.613263,0.05228116,0.009746209,0.9860815,0.1722842,23.35261,-24.106,-28.49895,1001.498
20.241484165,-0.007951167,-0.5534943,0.05228116,0.008771411,0.9871517,0.1606288,23.36373,-24.47399,-28.87522,1001.496
20.261667252,-0.1917769,-0.6730318,0.1133144,0.004014145,0.9817908,0.156637,23.36373,-24.47399,-28.87522,1001.496
20.281850815,-0.3143274,-0.852338,0.1743476,0.007725189,0.9939521,0.1573588,23.36373,-24.47399,-28.87522,1001.496
20.302034855,-0.007951167,-1.091413,0.1133144,0.0121064,0.9906309,0.1568001,22.97143,-23.73563,-28.50056,1001.496
20.319695473,-0.1917769,-1.270719,0.05228116,0.01512379,0.9805652,0.1502708,22.97143,-23.73563,-28.50056,1001.498
20.339878559,-0.06922642,-1.330488,-0.06978528,0.02443446,0.9687228,0.1368849,23.71579,-23.73641,-28.874,1001.498
20.360061646,-0.007951167,-1.270719,0.05228116,0.01656642,0.9812207,0.1351974,23.71579,-23.73641,-28.874,1001.496
20.380245209,0.1758746,-0.9718755,-0.008752062,0.01949478,0.9783382,0.1370824,23.71579,-23.73641,-28.874,1001.496
20.400429249,0.3597004,-1.031644,-0.008752062,0.02093618,0.9788924,0.1322254,23.35402,-24.10467,-28.87535,1001.496
20.420612335,0.4822509,-1.091413,-0.008752062,0.01928883,0.9952471,0.1417967,23.35402,-24.10467,-28.87535,1001.496
20.440795422,0.1145993,-0.9121068,-0.252885,0.02170585,0.9947985,0.1417843,22.97143,-23.73563,-28.50056,1001.494
20.460979462,-0.1305017,-0.9121068,-0.252885,0.02562086,0.9898867,0.1543325,22.97143,-23.73563,-28.50056,1001.494
20.481162548,-0.436878,-0.6730318,-0.252885,0.02477901,0.9796479,0.1594836,22.97143,-23.73563,-28.50056,1001.494
20.501346111,-0.3143274,-0.5534943,-0.4970178,0.01795813,0.9854226,0.1532823,22.96008,-23.36786,-28.06156,1001.494
20.521530151,0.2371498,-0.3144192,-0.3749514,0.01502924,0.9882617,0.1557757,22.96008,-23.36786,-28.06156,1001.491
20.541713238,0.4822509,-0.7925693,-0.3749514,0.008712133,0.991947,0.1655896,23.71579,-23.73641,-28.874,1001.491
20.561896324,0.6048014,-1.210951,-0.1918517,-0.0004203561,0.9894327,0.161174,23.71579,-23.73641,-28.874,1001.495
20.579556942,0.05332409,-1.509794,-0.3139182,0.0009441044,0.9962302,0.1617931,23.71579,-23.73641,-28.874,1001.495
20.599740505,-0.3756027,-1.928176,-0.252885,0.0165223,0.98436,0.1605621,23.35238,-24.10622,-28.43622,1001.495
20.619924545,-0.8045294,-2.107482,-0.4970178,0.02042023,0.9809449,0.1687608,23.35238,-24.10622,-28.43622,1001.495
20.640107632,-0.5594285,-2.167251,-0.4359846,0.01798467,0.9827693,0.1765859,22.97448,-23.73276,-29.31609,1001.495
20.660290718,-0.2530522,-2.107482,-0.4970178,0.008895076,0.9770141,0.1570219,22.97448,-23.73276,-29.31609,1001.495
20.680474281,-0.06922642,-1.868407,-0.6190843,0.01465196,0.9794784,0.1614414,22.97448,-23.73276,-29.31609,1001.495
20.700657845,0.3597004,-1.808638,-0.3749514,0.00900189,0.9683924,0.1471193,22.60136,-23.73326,-28.87844,1001.495
20.720841408,0.4822509,-1.390257,-0.4359846,0.004400538,0.9893884,0.1728441,22.60136,-23.73326,-28.87844,1001.495
20.741024494,0.2984251,-1.808638,-0.252885,0.01599422,0.9883195,0.1513961,22.97143,-23.73563,-28.50056,1001.493
20.761208534,0.05332409,-1.450026,-0.1308185,0.02038242,0.9846056,0.1415845,22.97143,-23.73563,-28.50056,1001.493
20.781391621,0.1145993,-1.928176,-0.3749514,0.02799185,0.9933902,0.146613,22.97143,-23.73563,-28.50056,1001.493
20.801575184,-0.436878,-1.509794,-0.6190843,0.02894009,0.9553267,0.1263948,22.98114,-24.10495,-28.50043,1001.493
20.821758747,-0.6819789,-1.450026,-0.558051,0.02937013,0.998421,0.1788253,22.98114,-24.10495,-28.50043,1001.495
20.841942310,-0.1917769,-1.689101,-0.8632172,0.01222618,0.9811417,0.136662,22.97143,-23.73563,-28.50056,1001.495
20.859602928,-0.5594285,-1.569563,-0.8021839,0.006361198,0.9871932,0.1528477,22.97143,-23.73563,-28.50056,1001.497
20.879786015,-0.436878,-1.450026,-0.6801175,0.00830749,0.9857494,0.1547627,22.97143,-23.73563,-28.50056,1001.497
20.899969578,-0.3143274,-1.210951,-0.3749514,0.002009042,0.9880685,0.155791,22.60136,-23.73326,-28.87844,1001.497
20.920153141,-0.3756027,-1.151182,-0.4970178,-0.001660566,0.9725457,0.152083,22.60136,-23.73326,-28.87844,1001.497
20.940336704,-0.1305017,-1.091413,-0.3749514,0.02095621,0.9766701,0.16089,22.97143,-23.73563,-28.50056,1001.497
20.960519791,0.05332409,-0.7925693,-0.1308185,0.003924003,0.9888824,0.1742946,22.97143,-23.73563,-28.50056,1001.497
20.980703831,-0.06922642,-1.091413,-0.4970178,0.009313033,0.9823734,0.1546944,22.59995,-23.73458,-28.50204,1001.497
21.000886917,-0.3756027,-1.270719,-0.558051,0.01899965,0.9792032,0.146832,22.59995,-23.73458,-28.50204,1001.497
21.021070480,-0.436878,-1.091413,-0.3139182,0.01624835,0.9676372,0.1363888,22.59995,-23.73458,-28.50204,1001.497
21.041254044,-0.3143274,-0.6730318,-0.3749514,0.009796186,0.942811,0.1383399,22.96313,-23.36499,-28.87709,1001.497
21.061437607,-0.6819789,0.2234995,-0.252885,0.01990748,0.9832628,0.1785392,22.96313,-23.36499,-28.87709,1001.499
21.081620693,-0.3756027,1.299337,-0.1308185,0.02031312,0.9895425,0.1810958,23.35261,-24.106,-28.49895,1001.499
21.101804256,-0.1305017,1.956793,0.1133144,0.007966999,0.9741904,0.1472356,23.35261,-24.106,-28.49895,1001.497
21.121987820,0.1758746,2.315406,0.05228116,0.005996646,0.9775231,0.150224,23.35261,-24.106,-28.49895,1001.497
21.139648438,1.156279,1.65795,0.296414,0.00976326,0.985552,0.1279943,22.98114,-24.10495,-28.50043,1001.497
21.159832001,0.8499025,1.120031,-0.1918517,0.0063415,1.028119,0.1789603,22.98114,-24.10495,-28.50043,1001.497
21.180015087,0.4822509,0.4028058,-0.008752062,0.000986289,0.9532848,0.1439126,23.72385,-24.10727,-28.43474,1001.499
21.200199127,-0.3143274,0.1637308,-0.008752062,-0.002740396,0.9814155,0.1843749,23.72385,-24.10727,-28.43474,1001.499
21.220382214,-0.1917769,-0.9718755,-0.252885,0.01091703,0.9692208,0.1641634,23.72385,-24.10727,-28.43474,1001.499
21.240565777,-0.3143274,-1.509794,-0.4359846,0.0072419,0.9542114,0.1575461,22.96173,-23.36632,-28.50069,1001.499
21.260748863,0.2984251,-0.9121068,-0.3749514,0.02516897,0.9875398,0.1460148,22.96173,-23.36632,-28.50069,1001.497
21.280932903,0.6660767,-0.3144192,0.1133144,0.01321714,1.018144,0.169021,22.96173,-23.36632,-28.50069,1001.497
21.301115990,0.7886271,-0.07534423,-0.3139182,0.01392544,0.9999972,0.1433583,22.96173,-23.36632,-28.50069,1001.496
21.321299553,0.4822509,-0.3144192,0.1743476,-0.0265664,0.9977645,0.1613773,22.96173,-23.36632,-28.50069,1001.496
21.341483116,0.9724529,-0.6730318,0.05228116,-0.008797871,1.004519,0.1420214,22.59831,-23.73613,-28.06291,1001.497
21.361666679,0.6048014,-1.390257,0.1133144,-0.02094189,0.9719394,0.1355554,22.59831,-23.73613,-28.06291,1001.497
21.381849766,-0.3143274,-1.808638,0.1743476,0.006769083,0.9926891,0.1855572,22.9809,-24.10517,-28.4377,1001.497
