Time (s),Gyroscope X (deg/s),Gyroscope Y (deg/s),Gyroscope Z (deg/s),Accelerometer X (g),Accelerometer Y (g),Accelerometer Z (g),Magnetometer X (uT),Magnetometer Y (uT),Magnetometer Z (uT),Barometer (hPa)
0.000000000,0.1257367,0.2564729,0.05240937,0.02182142,0.9849618,0.1566736,10.59374,-23.38071,-32.00026,1001.103
0.020183086,-0.05808908,0.4357792,-0.00862385,0.009794973,0.9823564,0.1571263,10.59374,-23.38071,-32.00026,1001.103
0.040367126,0.003186173,0.4357792,0.1134426,0.01313501,0.9852834,0.1600988,10.57268,-22.64362,-31.56139,1001.103
0.060551167,-0.1193643,0.3760104,-0.00862385,0.01898075,0.9805501,0.1575636,10.57268,-22.64362,-31.56139,1001.103
0.080735207,0.1870119,0.3760104,-0.00862385,0.02036892,0.9854295,0.1561984,10.57268,-22.64362,-31.56139,1001.103
0.100918293,0.2482872,-0.04237088,-0.1306903,0.0237909,0.9815565,0.1609826,10.58239,-23.01294,-31.56126,1001.103
0.121102333,0.1257367,-0.3412147,0.05240937,0.0117401,0.980816,0.168771,10.58239,-23.01294,-31.56126,1001.103
0.141286373,0.06446143,-0.4607522,-0.00862385,0.02424983,0.9835155,0.1595609,10.58239,-23.01294,-31.56126,1001.107
0.158946991,0.1257367,-0.4607522,-0.1306903,0.01795226,0.985907,0.1532919,10.58239,-23.01294,-31.56126,1001.107
0.179130554,0.06446143,-0.2216772,-0.1306903,0.01700634,0.9845169,0.1454804,10.58239,-23.01294,-31.56126,1001.107
0.199314594,-0.05808908,-0.4607522,-0.06965707,0.02666714,0.9830911,0.157116,10.22062,-23.3812,-31.56261,1001.107
0.219498158,-0.05808908,-0.2216772,-0.1306903,0.02477924,0.9796672,0.1575376,10.22062,-23.3812,-31.56261,1001.107
0.239681721,0.003186173,-0.4607522,-0.06965707,0.01656949,0.9805046,0.1585394,10.95551,-23.01244,-31.99891,1001.107
0.259865761,0.003186173,-0.6400584,-0.31379,0.0174749,0.9853334,0.1615532,10.95551,-23.01244,-31.99891,1001.107
0.280049801,0.2482872,-0.5205209,-0.1306903,0.01457055,0.986322,0.1552514,10.95551,-23.01244,-31.99891,1001.105
0.300232887,0.06446143,-0.4607522,-0.31379,0.0178344,0.9955554,0.1573757,10.95386,-23.01399,-31.55978,1001.105
0.320416927,-0.1193643,-0.1021396,-0.1306903,0.01650627,0.9859435,0.1474557,10.95386,-23.01399,-31.55978,1001.107
0.340600967,0.003186173,0.1369354,-0.00862385,0.01946972,0.9801452,0.1502561,10.21255,-23.01034,-32.00187,1001.107
0.360785007,0.06446143,-0.1021396,-0.1306903,0.017057,0.9799792,0.1633942,10.21255,-23.01034,-32.00187,1001.107
0.380968094,0.003186173,-0.3412147,-0.1306903,0.01168786,0.9852234,0.1639924,10.95222,-23.01553,-31.12065,1001.107
0.401152134,0.06446143,-0.2216772,0.05240937,0.01554721,0.9854062,0.1513391,10.95222,-23.01553,-31.12065,1001.107
0.421335697,-0.05808908,0.01739787,0.235509,0.01454207,0.9888162,0.148002,10.95222,-23.01553,-31.12065,1001.107
0.438996315,-0.05808908,-0.04237088,0.1134426,0.0179515,0.9858443,0.1596163,10.22062,-23.3812,-31.56261,1001.107
0.459180355,0.003186173,0.1967041,-0.1306903,0.01696385,0.9877915,0.1572233,10.22062,-23.3812,-31.56261,1001.107
0.479364395,0.06446143,-0.1021396,-0.1306903,0.01697001,0.9873313,0.1547813,10.20285,-22.64103,-32.002,1001.107
0.499547481,-0.05808908,-0.04237088,0.1744758,0.01898104,0.9805742,0.1551312,10.20285,-22.64103,-32.002,1001.107
0.519731521,0.003186173,-0.04237088,-0.06965707,0.01465783,0.978994,0.1614318,10.20285,-22.64103,-32.002,1001.111
0.539915562,-0.05808908,-0.04237088,-0.1306903,0.02084522,0.9859162,0.1566939,10.21091,-23.01189,-31.56274,1001.111
0.560099602,0.06446143,0.01739787,-0.00862385,0.01838706,0.9897504,0.15726,10.21091,-23.01189,-31.56274,1001.111
0.580282688,-0.05808908,0.07716663,-0.00862385,0.01939836,0.9858802,0.1581551,10.58239,-23.01294,-31.56126,1001.111
0.600466728,-0.05808908,0.01739787,0.05240937,0.01556388,0.9838759,0.1590942,10.58239,-23.01294,-31.56126,1001.111
0.620650768,0.1257367,-0.4607522,-0.1917235,0.01898064,0.9805404,0.1585366,10.58239,-23.01294,-31.56126,1001.111
0.640834331,-0.05808908,-0.5802897,-0.00862385,0.01317551,0.9818448,0.1648966,10.57268,-22.64362,-31.56139,1001.111
0.661017895,-0.05808908,-0.8791334,-0.31379,0.01319917,0.9799219,0.1633987,10.57268,-22.64362,-31.56139,1001.111
0.681201935,0.003186173,-0.8193647,-0.1306903,0.0005624131,0.9880518,0.1553062,10.21091,-23.01189,-31.56274,1001.111
0.698862553,0.003186173,-0.5802897,-0.1306903,0.002545439,0.9838275,0.1445148,10.21091,-23.01189,-31.56274,1001.111
0.719046116,0.06446143,-0.7595959,-0.06965707,0.005432305,0.9843016,0.1498724,10.21091,-23.01189,-31.56274,1001.111
0.739230156,0.06446143,-0.4607522,-0.1306903,0.02613854,0.9870071,0.1523284,10.57432,-22.64208,-32.00052,1001.111
0.759414196,-0.1193643,0.3760104,0.1134426,0.02808623,0.9856791,0.1425676,10.57432,-22.64208,-32.00052,1001.111
0.779597282,-0.1806396,0.6748542,-0.00862385,0.01747014,0.9859095,0.1523194,10.56297,-22.27431,-31.56152,1001.111
0.799781322,-0.1806396,0.4357792,0.1744758,0.01799241,0.9824394,0.1610086,10.56297,-22.27431,-31.56152,1001.111
0.819965363,-0.1193643,0.2564729,0.1744758,0.01414508,0.9813121,0.1712102,10.56297,-22.27431,-31.56152,1001.111
0.840149403,0.003186173,-0.04237088,0.05240937,0.006871373,0.9846628,0.164475,10.22706,-23.69051,-31.12337,1001.109
0.860332489,0.06446143,-0.1619084,-0.06965707,0.01028435,0.9819853,0.1464133,10.22706,-23.69051,-31.12337,1001.109
0.880516529,-0.1193643,0.07716663,-0.1306903,0.020864,0.9845597,0.1469353,10.21255,-23.01034,-32.00187,1001.109
0.900700569,-0.1193643,-0.2216772,-0.06965707,0.01120586,0.9852355,0.162047,10.21255,-23.01034,-32.00187,1001.109
0.920884132,-0.05808908,0.01739787,-0.06965707,0.02424501,0.9840868,0.1508137,10.58403,-23.01139,-32.00039,1001.109
0.941067696,0.1257367,0.3760104,0.05240937,0.03911712,0.9905472,0.1567588,10.58403,-23.01139,-32.00039,1001.109
0.961251736,0.06446143,0.1369354,0.05240937,0.02142055,0.9781062,0.1633507,10.58403,-23.01139,-32.00039,1001.109
0.978912830,0.1257367,0.3760104,-0.00862385,0.001051095,0.987623,0.1504311,10.58074,-23.01448,-31.12213,1001.109
0.999095917,0.2482872,0.1967041,0.235509,0.01876963,0.9980012,0.1564495,10.58074,-23.01448,-31.12213,1001.107
1.019279957,0.1870119,0.1967041,0.1134426,0.002968098,0.9886058,0.1519075,10.59209,-23.38225,-31.56113,1001.107
1.039463997,0.1257367,0.2564729,0.1744758,-0.01823286,0.9867992,0.1557956,10.59209,-23.38225,-31.56113,1001.105
1.059648037,-0.3031901,0.6748542,-0.06965707,0.03456232,1.007635,0.1858122,10.59209,-23.38225,-31.56113,1001.105
1.079831123,0.1257367,1.571386,0.1744758,0.0583096,0.9983515,0.1802412,10.57268,-22.64362,-31.56139,1001.105
1.100015163,0.3095624,1.332311,0.3575754,0.03636029,0.9785228,0.1925322,10.57268,-22.64362,-31.56139,1001.105
1.120199204,0.1257367,1.929998,0.3575754,0.009212787,0.9905687,0.1587494,10.20285,-22.64103,-32.002,1001.105
1.140382767,0.432113,2.049536,0.2965422,-0.01423203,0.9744387,0.1866866,10.20285,-22.64103,-32.002,1001.105
1.160566330,-1.528695,1.392079,0.4796419,-0.04190938,0.9873883,0.3052241,10.20285,-22.64103,-32.002,1001.105
1.180749893,-0.2419149,-0.04237088,0.1134426,-0.005993164,0.9295746,0.2767783,9.820023,-22.27221,-31.56448,1001.105
1.200933933,-0.05808908,-1.237746,-0.06965707,0.02558578,0.9502497,0.2912521,9.820023,-22.27221,-31.56448,1001.105
1.221117973,0.06446143,-0.8791334,0.05240937,0.0422797,0.9672754,0.2117644,9.841078,-23.00929,-32.00335,1001.105
1.241301060,0.3095364,0.4955094,0.1133656,0.04893759,0.9751735,0.2070451,9.841078,-23.00929,-32.00335,1001.105
1.258962631,0.06404386,2.285682,0.4788752,0.03890789,0.9675391,0.1801464,9.841078,-23.00929,-32.00335,1001.105
1.279145717,0.6766014,3.71764,0.4784431,0.01350564,0.9935166,0.2098931,10.58239,-23.01294,-31.56126,1001.105
1.299329758,0.370225,4.614172,0.5394764,0.004980842,0.9413749,0.1782186,10.58239,-23.01294,-31.56126,1001.103
1.319513798,0.370225,5.092322,0.5394764,-0.009419338,0.9746857,0.217826,10.58403,-23.01139,-32.00039,1001.103
1.339697838,0.1863993,5.331397,0.722576,0.02102709,0.9699246,0.206009,10.58403,-23.01139,-32.00039,1001.107
1.359880924,0.2476745,5.69001,0.5394764,0.02299005,0.9669505,0.215679,10.58403,-23.01139,-32.00039,1001.107
1.380064964,0.370225,6.108391,0.7836093,0.02711523,0.9851241,0.1970557,10.19956,-22.64412,-31.12374,1001.107
1.400248527,0.6766014,6.706079,0.8446425,0.02591429,0.9646972,0.2029788,10.19956,-22.64412,-31.12374,1001.107
1.420432567,0.6153261,6.825616,1.027742,0.01108733,0.9542122,0.2120382,10.59209,-23.38225,-31.56113,1001.106
1.440616131,0.6153261,6.586541,0.8446425,0.005683033,1.002014,0.2207776,10.59209,-23.38225,-31.56113,1001.106
1.460799694,0.4315003,5.69001,0.8446425,0.01406338,0.9881316,0.1674526,10.59209,-23.38225,-31.56113,1001.106
1.480983734,0.125124,5.21186,0.6615428,0.03309092,1.009449,0.1960686,10.59209,-23.38225,-31.56113,1001.106
1.501167774,0.3089498,4.494635,0.9056757,0.0347819,0.9908836,0.1163851,10.59209,-23.38225,-31.56113,1001.106
1.518828392,0.002573525,4.315328,0.9056757,0.01020192,0.987775,0.1976196,11.34313,-23.69212,-31.55807,1001.106
1.539012432,-0.2425275,3.299259,0.8446425,0.001779661,0.9672729,0.1514871,11.34313,-23.69212,-31.55807,1001.106
1.559195518,0.1863993,2.821109,0.4784431,0.01622975,0.9293615,0.1361179,11.34313,-23.69212,-31.55807,1001.106
1.579379558,0.4315003,1.386659,0.5394764,0.01541787,0.9554288,0.1935657,10.95386,-23.01399,-31.55978,1001.106
1.599563599,-0.119977,0.8487403,0.4174099,0.006174653,0.9631519,0.1338819,10.95386,-23.01399,-31.55978,1001.106
1.619747162,-0.2425275,-0.04779106,0.2953435,0.04017105,0.9824452,0.1935774,10.95057,-23.01708,-30.68152,1001.104
1.639930725,0.125124,0.3705902,0.1122438,0.007133828,0.9636989,0.1290255,10.95057,-23.01708,-30.68152,1001.104
1.660114765,0.6766014,-0.2270973,0.2953435,0.002021376,1.026795,0.1594769,10.57268,-22.64362,-31.56139,1001.102
1.680298328,0.5540509,0.3705902,-0.07085582,0.04158361,1.026078,0.1443205,10.57268,-22.64362,-31.56139,1001.102
1.700482368,0.125124,0.1315152,0.2343103,0.03166535,1.008264,0.1668521,10.57268,-22.64362,-31.56139,1001.104
1.720665932,0.4315003,0.8487403,0.1122438,0.01728738,1.000857,0.1594278,11.32698,-23.0135,-31.99743,1001.104
1.740849495,0.4927756,0.669434,-0.1929222,0.01526567,1.048316,0.1589103,11.32698,-23.0135,-31.99743,1001.102
1.761033535,0.4927756,0.7292027,0.05121062,0.0157186,1.011103,0.1499011,10.58239,-23.01294,-31.56126,1001.102
1.781217575,-0.119977,0.908509,-0.6201548,0.04054428,0.9918625,0.17284,10.58239,-23.01294,-31.56126,1001.1
1.798878193,-0.05870173,0.8487403,0.3563767,0.005192557,0.9636187,0.1830378,10.58239,-23.01294,-31.56126,1001.1
1.819062233,-0.2425275,2.163653,0.2343103,0.003171726,1.011151,0.175223,10.96357,-23.3833,-31.55965,1001.102
1.839245319,0.06384878,1.864809,0.6615428,0.0126113,1.02828,0.172142,10.96357,-23.3833,-31.55965,1001.102
1.859429359,0.06384878,3.418797,0.4784431,0.02803054,0.9898019,0.166492,11.69846,-23.01455,-31.99595,1001.099
1.879613399,0.002573525,3.777409,0.722576,0.02962718,0.97798,0.1394934,11.69846,-23.01455,-31.99595,1001.099
1.899796963,0.002573525,4.793478,0.5394764,0.004305578,0.9970511,0.1817545,11.69846,-23.01455,-31.99595,1001.099
1.919980526,0.06384878,4.972785,0.9667089,0.001494925,0.9912426,0.1281191,10.95222,-23.01553,-31.12065,1001.099
1.940164566,0.125124,5.391166,0.9667089,0.00496088,0.9832485,0.1576376,10.95222,-23.01553,-31.12065,1001.099
1.960348129,0.2476745,5.21186,0.9667089,-0.005285225,0.9935979,0.1247696,10.95222,-23.01553,-31.12065,1001.099
1.980532169,0.1863993,5.450934,1.210842,0.02259893,0.9609011,0.1411121,10.95222,-23.01553,-31.12065,1001.099
2.000715256,0.9217024,5.869316,1.210842,0.00867104,1.075598,0.1341574,10.95222,-23.01553,-31.12065,1001.099
2.020899296,-0.4263533,6.64631,0.6005096,0.01357473,0.9895324,0.1232017,11.34149,-23.69366,-31.11894,1001.099
2.041083336,-0.610179,5.570472,0.6005096,0.02167085,0.9580773,0.1313258,11.34149,-23.69366,-31.11894,1001.099
2.061267376,-0.365078,5.869316,0.6615428,0.03149761,0.9818995,0.1867672,11.32534,-23.01504,-31.5583,1001.097
2.078927994,0.3089498,6.227928,1.027742,0.02247433,0.9709614,0.1525028,11.32534,-23.01504,-31.5583,1001.097
2.099112034,0.4315003,5.630241,0.9667089,-0.007146866,0.9874965,0.1509272,11.32534,-23.01504,-31.5583,1001.097
2.119295597,-0.05870173,4.793478,0.6615428,-0.01896195,1.007106,0.1591181,11.32534,-23.01504,-31.5583,1001.097
2.139479160,-0.1812522,3.777409,0.8446425,0.01477563,1.008987,0.1664046,11.32534,-23.01504,-31.5583,1001.097
2.159662724,-0.2425275,3.179722,0.5394764,0.02044246,1.01952,0.1388693,11.69517,-23.01764,-31.11769,1001.097
2.179846764,-0.1812522,2.701571,0.4784431,0.03567963,0.9564005,0.1259196,11.69517,-23.01764,-31.11769,1001.097
2.200030804,-0.1812522,2.28319,0.1732771,0.02689182,1.004468,0.1516998,11.70652,-23.38541,-31.5567,1001.097
2.220213890,-0.365078,2.163653,0.4174099,0.02653991,0.9929342,0.1903989,11.70652,-23.38541,-31.5567,1001.097
2.240397930,-0.4876285,1.924578,-0.009822596,0.03197384,0.9427347,0.1791791,11.70652,-23.38541,-31.5567,1001.097
2.260581970,0.06384878,1.924578,0.2343103,0.01596846,0.950422,0.1618376,11.70816,-23.38386,-31.99583,1001.097
2.280766010,-0.1812522,1.80504,0.2343103,0.01143725,0.9655816,0.1898797,11.70816,-23.38386,-31.99583,1001.097
2.300949097,-0.119977,1.924578,-0.131889,0.0176845,0.9677569,0.175316,11.69681,-23.01609,-31.55683,1001.097
2.321133137,0.3089498,2.462497,0.1122438,0.03654976,0.9244839,0.1209074,11.69681,-23.01609,-31.55683,1001.097
2.341317177,0.5540509,2.582034,0.2343103,0.004991637,1.020589,0.1544839,11.69681,-23.01609,-31.55683,1001.099
2.358977794,0.9217024,2.76134,0.2953435,0.02139156,1.020204,0.1690498,11.68711,-22.64677,-31.55696,1001.099
2.379161358,-1.039106,3.478565,0.8446425,-0.01024035,0.9245846,0.1384952,11.68711,-22.64677,-31.55696,1001.099
2.399345398,-0.1812522,3.179722,0.2343103,-0.002377732,1.029606,0.2602625,11.32369,-23.01659,-31.11917,1001.1
2.419528961,-0.610179,3.000415,0.6615428,0.03463168,0.9224422,0.1773138,11.32369,-23.01659,-31.11917,1001.1
2.439712524,-0.1812522,3.956715,0.4174099,0.03410194,0.9252945,0.2308956,11.32369,-23.01659,-31.11917,1001.1
2.459896564,-0.610179,3.179722,0.6615428,0.03300333,0.9374598,0.1751805,12.00638,-23.01697,-31.55559,1001.1
2.480080604,-0.3038028,4.195791,0.3563767,0.02069641,0.9572374,0.2145169,12.00638,-23.01697,-31.55559,1001.099
2.500263691,0.370225,3.418797,0.9056757,-0.0007736338,0.9787554,0.162423,11.70652,-23.38541,-31.5567,1001.099
2.520447731,-0.7327295,3.657872,0.4174099,0.006937395,0.9794556,0.1522072,11.70652,-23.38541,-31.5567,1001.1
2.540631771,-0.5489038,2.582034,0.4784431,0.03965168,0.9851847,0.2096898,11.70652,-23.38541,-31.5567,1001.1
2.560815811,-0.119977,3.359028,0.6005096,0.04535254,0.9530678,0.1832567,12.00638,-23.01697,-31.55559,1001.102
2.580998897,-0.4263533,3.71764,0.1732771,0.03713092,1.035125,0.1537512,12.00638,-23.01697,-31.55559,1001.102
2.601182938,-0.2425275,3.837178,0.9056757,0.02292475,0.9751267,0.07521733,12.00473,-23.01851,-31.11646,1001.104
2.618843555,1.228079,4.195791,0.8446425,-0.0173462,0.9562488,0.01310631,12.00473,-23.01851,-31.11646,1001.104
2.639027595,-0.4263533,3.060184,1.088775,-0.03671797,1.041031,0.08293486,12.00473,-23.01851,-31.11646,1001.104
2.659211159,-0.5489038,1.864809,0.4784431,-0.0433355,1.028713,0.1425509,12.01303,-23.38915,-30.73994,1001.104
2.679395199,-0.365078,-0.9443224,-0.4980884,0.03709653,0.957838,0.1784973,12.01303,-23.38915,-30.73994,1001.104
2.699578762,0.6153261,-1.900623,-0.131889,0.09775818,1.005692,0.2319067,11.70487,-23.38695,-31.11757,1001.104
2.719762325,0.3089498,-1.004091,-0.3760219,0.07559585,0.9644801,0.2014419,11.70487,-23.38695,-31.11757,1001.104
2.739946365,0.4315003,-0.9443224,0.2953435,-0.02961022,1.010493,0.14363,12.00332,-23.01984,-30.74007,1001.104
2.760130405,0.06384878,-0.5857099,-0.131889,-0.05679513,0.9846482,0.1684609,12.00332,-23.01984,-30.74007,1001.102
2.780314445,-0.4876285,-1.960391,0.1732771,-0.02186836,0.9682787,0.1612734,12.00332,-23.01984,-30.74007,1001.102
2.800497532,-0.4263533,-0.9443224,-0.4370551,0.02765378,1.061322,0.1362799,12.38591,-23.38888,-31.11486,1001.102
2.820681572,-0.85528,-0.3466348,-0.131889,0.04772697,0.9974699,0.1067647,12.38591,-23.38888,-31.11486,1001.102
2.840865612,-0.7327295,0.7292027,-0.2539555,0.03977048,1.017199,0.1086266,12.38756,-23.38733,-31.55399,1001.1
2.861048698,-1.161656,0.01197769,-0.07085582,0.03070676,1.009705,0.06907804,12.38756,-23.38733,-31.55399,1001.1
2.881232738,0.002573525,0.07174645,-0.009822596,0.02515792,1.068827,0.1086967,12.38756,-23.38733,-31.55399,1001.1
2.898893833,0.002573525,-0.7650161,0.4174099,0.001025521,1.032911,-0.01897788,12.03223,-24.0649,-31.1161,1001.1
2.919076920,-0.05870173,-1.123629,-0.131889,-0.02547748,1.030262,0.01312331,12.03223,-24.0649,-31.1161,1001.1
2.939260960,-0.3038028,-2.97646,-0.009822596,-0.0175699,1.013276,0.07651839,12.01608,-23.38628,-31.55547,1001.1
2.959445000,-1.284207,-2.558079,-0.4370551,0.02557302,0.9540424,0.1531366,12.01608,-23.38628,-31.55547,1001.096
2.979629040,-0.85528,-3.036229,-0.1929222,0.01006946,0.9604479,0.1192251,12.01608,-23.38628,-31.55547,1001.096
2.999812126,-0.610179,-1.661547,-0.2539555,0.02982709,1.001188,0.1448183,11.71155,-23.69604,-30.74106,1001.096
3.019996166,-0.2425275,-1.243166,-0.131889,0.01435886,0.96505,0.1013062,11.71155,-23.69604,-30.74106,1001.096
3.040180206,-0.3038028,0.01197769,-0.07085582,0.0125257,0.9961011,0.1432833,12.37785,-23.01802,-31.55412,1001.096
3.060364246,-0.4263533,0.7292027,0.1732771,-0.0204769,0.9744005,0.08353864,12.37785,-23.01802,-31.55412,1001.096
3.080547333,-0.3038028,1.087815,0.05121062,-0.01324649,0.9742569,0.1088277,12.37785,-23.01802,-31.55412,1001.096
3.100731373,-0.3038028,0.3705902,0.05121062,0.02632794,1.011285,0.1474562,11.70652,-23.38541,-31.5567,1001.096
3.120914936,0.2476745,-0.1075598,-0.2539555,0.1211474,0.9872745,0.1697114,11.70652,-23.38541,-31.5567,1001.096
3.141098976,-0.2425275,1.028046,0.2953435,0.0914166,0.9715858,0.2414594,11.70487,-23.38695,-31.11757,1001.096
3.161282539,0.2476745,2.28319,0.6615428,-0.01940745,0.9627324,0.2356078,11.70487,-23.38695,-31.11757,1001.094
3.178943634,0.7991518,2.163653,0.8446425,-0.04032741,0.9782329,0.2048037,11.70487,-23.38695,-31.11757,1001.094
3.199126720,0.4315003,1.506197,0.4174099,-0.04889455,1.008669,0.2010394,12.00638,-23.01697,-31.55559,1001.094
3.219310761,0.06384878,0.9682778,0.2343103,-0.006199936,0.9483548,0.1905379,12.00638,-23.01697,-31.55559,1001.094
3.239494801,0.002573525,1.32689,0.1732771,0.02839833,0.9591236,0.1824282,11.71296,-23.69471,-31.11746,1001.098
3.259678841,0.1863993,1.80504,0.4784431,0.04027968,0.973973,0.1685937,11.71296,-23.69471,-31.11746,1001.098
3.279861927,0.1863993,2.582034,0.6005096,0.03771077,1.026719,0.1715877,11.71296,-23.69471,-31.11746,1001.098
3.300045967,0.1863993,3.179722,0.7836093,0.0133085,1.011154,0.1411471,11.32534,-23.01504,-31.5583,1001.098
3.320230007,0.3089498,3.538334,0.6615428,-0.002494674,0.9619771,0.1416568,11.32534,-23.01504,-31.5583,1001.098
3.340413570,-0.1812522,3.000415,0.6005096,9.355687E-05,0.9872112,0.1416658,11.71461,-23.69317,-31.55659,1001.098
3.360597133,0.7991518,3.71764,0.7836093,0.01844044,0.8664994,0.1265986,11.71461,-23.69317,-31.55659,1001.096
3.380781174,0.4315003,3.777409,0.6615428,0.03331202,1.031498,0.1716888,12.00473,-23.01851,-31.11646,1001.096
3.400964737,0.1863993,2.701571,0.4174099,0.02270411,0.9521441,0.1448313,12.00473,-23.01851,-31.11646,1001.096
3.421148777,0.1863993,2.940647,0.2343103,0.0222831,0.9871478,0.1323868,12.00473,-23.01851,-31.11646,1001.096
3.441332340,0.125124,1.565965,0.3563767,0.002208424,0.971586,0.1569242,11.70652,-23.38541,-31.5567,1001.098
3.458993435,0.1863993,1.028046,0.2343103,0.005492797,0.9399611,0.1261251,11.70652,-23.38541,-31.5567,1001.098
3.479177475,0.370225,0.4901277,-0.131889,0.04238667,0.999282,0.1603329,12.01608,-23.38628,-31.55547,1001.098
3.499360561,0.2476745,0.908509,-0.4370551,0.03700625,1.085794,0.125559,12.01608,-23.38628,-31.55547,1001.098
3.519544601,0.002573525,0.6096652,0.1732771,0.002128018,1.018158,0.1510339,12.01608,-23.38628,-31.55547,1001.098
3.539728641,-0.5489038,1.028046,0.3563767,-0.01803882,0.9708446,0.15256,12.02088,-23.69713,-30.6771,1001.102
3.559912205,-0.5489038,0.7889715,0.4784431,-0.02899615,0.9990996,0.1696792,12.02088,-23.69713,-30.6771,1001.102
3.580095768,-0.119977,1.087815,0.2343103,-0.004367547,0.9975016,0.1233857,12.02112,-23.69691,-30.73983,1001.098
3.600279808,-0.2425275,0.669434,0.4174099,0.01095366,1.006077,0.1610001,12.02112,-23.69691,-30.73983,1001.098
3.620463371,0.1863993,1.028046,0.2953435,0.0328851,0.987693,0.1421138,12.02112,-23.69691,-30.73983,1001.098
3.640647411,-0.2425275,0.4901277,0.2343103,0.04213074,0.941493,0.1241553,12.01608,-23.38628,-31.55547,1001.098
3.660830974,-0.365078,0.1315152,-0.1929222,0.03839687,0.9709691,0.1266905,12.01608,-23.38628,-31.55547,1001.096
3.681014538,-0.1812522,-0.2868661,0.1122438,0.01626039,0.9666927,0.1339372,12.37785,-23.01802,-31.55412,1001.096
3.701198578,0.2476745,0.01197769,-0.07085582,0.008317623,0.9856175,0.1192392,12.37785,-23.01802,-31.55412,1001.096
3.718859196,0.2476745,-0.2868661,-0.07085582,0.01369089,0.9797441,0.1332261,12.37785,-23.01802,-31.55412,1001.096
3.739043236,0.2476745,0.3108215,-0.131889,0.0189849,0.9808928,0.1230227,12.37621,-23.01956,-31.11498,1001.096
3.759227276,0.002573525,0.3108215,-0.009822596,0.007119579,0.96446,0.1499638,12.37621,-23.01956,-31.11498,1001.096
3.779410362,0.002573525,0.3705902,-0.07085582,0.01855716,0.9756945,0.1579547,12.37621,-23.01956,-31.11498,1001.096
3.799594402,-0.1812522,0.8487403,-0.07085582,0.03242901,0.9849986,0.1688234,12.37621,-23.01956,-31.11498,1001.096
3.819778442,0.125124,1.32689,0.05121062,0.02211849,0.9997182,0.1837275,12.37621,-23.01956,-31.11498,1001.096
3.839962006,0.3089498,1.924578,0.2343103,0.02250675,1.00747,0.1843669,12.01608,-23.38628,-31.55547,1001.096
3.860145569,0.06384878,1.745272,0.1732771,0.01349276,0.9953607,0.170516,12.01608,-23.38628,-31.55547,1001.096
3.880329132,0.2476745,1.028046,0.2343103,0.007989029,1.011779,0.1679296,11.71296,-23.69471,-31.11746,1001.096
3.900513172,-0.05870173,1.087815,0.05121062,0.01223625,0.979066,0.1993906,11.71296,-23.69471,-31.11746,1001.096
3.920697212,-0.05870173,1.147584,0.2343103,-0.001311841,0.9828466,0.1887804,11.70816,-23.38386,-31.99583,1001.096
3.940880299,0.125124,1.028046,0.2343103,0.02692823,1.000691,0.1905519,11.70816,-23.38386,-31.99583,1001.1
3.961064339,-0.05870173,1.207353,0.4174099,0.04891741,0.9764142,0.2284795,11.70816,-23.38386,-31.99583,1001.1
3.981248379,0.4315003,1.685503,0.3563767,0.0348875,0.9802215,0.2144644,12.38591,-23.38888,-31.11486,1001.1
3.998908997,0.6153261,1.924578,0.2343103,-0.003554969,0.9695531,0.1578656,12.38591,-23.38888,-31.11486,1001.1
4.019093037,0.3089498,2.701571,0.2343103,-0.01165223,0.9999447,0.2081109,12.03059,-24.06645,-30.67697,1001.1
4.039277077,0.9829776,3.359028,0.4784431,0.0197924,0.99411,0.1106319,12.03059,-24.06645,-30.67697,1001.1
4.059460640,0.2476745,4.016484,0.4784431,0.0148888,0.9593062,0.19267,12.03059,-24.06645,-30.67697,1001.1
4.079644203,0.1863993,4.554403,0.5394764,0.04217376,0.9759696,0.2143696,12.40535,-24.06441,-31.55375,1001.1
4.099827766,0.4315003,5.331397,0.6615428,0.01058925,0.9954497,0.2060429,12.40535,-24.06441,-31.55375,1001.1
4.120011807,0.06384878,5.032553,0.5394764,0.03280918,0.9534047,0.1793891,12.40371,-24.06595,-31.11462,1001.1
4.140195847,0.06384878,5.092322,0.6005096,0.02843883,0.9556848,0.187226,12.40371,-24.06595,-31.11462,1001.106
4.160378933,0.370225,4.733709,0.4784431,0.005229828,1.000528,0.1745231,12.40371,-24.06595,-31.11462,1001.106
4.180562973,0.125124,4.255559,0.5394764,0.02375195,0.9841536,0.1921756,12.37621,-23.01956,-31.11498,1001.104
4.200747013,-0.05870173,4.195791,0.5394764,0.01706588,0.9787739,0.1872131,12.37621,-23.01956,-31.11498,1001.104
4.220931053,0.06384878,3.000415,0.4784431,-0.00281587,1.027426,0.1862588,12.01279,-23.38937,-30.6772,1001.104
4.241114140,0.370225,2.28319,0.2953435,0.03908938,0.9921323,0.192311,12.01279,-23.38937,-30.6772,1001.104
4.261298180,0.5540509,1.685503,0.3563767,0.002678612,0.9328911,0.1508053,12.01279,-23.38937,-30.6772,1001.106
4.278958797,-0.1812522,0.7889715,0.05121062,0.01799954,1.020736,0.2079922,12.37456,-23.02111,-30.67585,1001.106
4.299142837,0.6153261,0.3108215,0.4174099,0.006683613,1.000167,0.1642955,12.37456,-23.02111,-30.67585,1001.106
4.319326401,0.1863993,0.2510527,-0.009822596,0.0137292,0.9770938,0.1073845,11.70487,-23.38695,-31.11757,1001.106
4.339510441,-0.4876285,-0.1673286,-0.1929222,0.009888317,1.053852,0.1789778,11.70487,-23.38695,-31.11757,1001.11
4.359694004,0.3089498,-1.54201,-0.681188,0.05696993,1.108663,0.1945911,11.70487,-23.38695,-31.11757,1001.11
4.379877567,0.2476745,-1.960391,-0.5591215,0.01941289,0.9454966,0.1262143,12.37621,-23.01956,-31.11498,1001.111
4.400061607,0.3089498,-2.49831,-0.8032544,0.03535239,1.02232,0.1719907,12.37621,-23.01956,-31.11498,1001.111
4.420245647,-0.5489038,-2.97646,-0.4980884,0.03807414,0.9966461,0.1753713,12.01279,-23.38937,-30.6772,1001.111
4.440428734,0.06384878,-2.02016,-0.4370551,0.02193253,0.9737864,0.2576623,12.01279,-23.38937,-30.6772,1001.111
4.460612774,-0.05870173,-2.02016,0.2953435,-0.01824378,0.8679284,0.1719333,12.37456,-23.02111,-30.67585,1001.111
4.480796814,-1.100381,-1.482241,-0.2539555,0.04378919,0.9221776,0.2176818,12.37456,-23.02111,-30.67585,1001.111
4.500980854,0.2476745,-1.004091,-0.3149887,0.03286878,0.9476665,0.2206353,12.37456,-23.02111,-30.67585,1001.111
4.521164417,-1.100381,-0.4064036,-0.7422212,-0.0008582789,0.9060401,0.1658498,12.01444,-23.38783,-31.11633,1001.111
4.538825035,-0.85528,0.1315152,0.05121062,-0.0002812526,0.9380168,0.1669684,12.01444,-23.38783,-31.11633,1001.111
4.559009075,0.6766014,1.506197,0.1732771,0.007676442,0.9590026,0.1148207,12.02253,-23.69559,-31.11623,1001.111
4.579192638,0.3089498,2.402728,0.9056757,0.006468898,0.8983833,0.1671473,12.02253,-23.69559,-31.11623,1001.111
4.599376202,-0.610179,2.76134,-0.3760219,0.02957097,0.9839982,0.0700307,12.02253,-23.69559,-31.11623,1001.111
4.619560242,0.2476745,3.299259,0.2343103,0.03996226,0.8821211,0.09816752,12.02088,-23.69713,-30.6771,1001.111
4.639744282,-0.365078,3.956715,0.4174099,0.07900107,1.081068,0.2251541,12.02088,-23.69713,-30.6771,1001.11
4.659927368,0.2476745,4.255559,0.6615428,0.003418948,1.030512,0.1775522,12.00168,-23.02138,-30.30094,1001.11
4.680111408,-0.1812522,2.76134,-0.131889,0.01025071,0.9453751,0.1247655,12.00168,-23.02138,-30.30094,1001.11
4.700295448,-0.1812522,2.044115,-0.131889,-0.04047753,0.9920006,0.1354945,12.00168,-23.02138,-30.30094,1001.11
4.720479488,0.002573525,0.8487403,0.1732771,-0.000994585,1.036009,0.2029699,12.40206,-24.0675,-30.67549,1001.11
4.740662575,1.166803,1.386659,-0.2539555,0.08036368,1.168943,0.1607155,12.40206,-24.0675,-30.67549,1001.11
4.760846615,0.8604271,0.9682778,-0.1929222,0.05339194,1.047495,0.1033671,12.394,-23.69664,-31.11475,1001.111
4.781030655,-0.1812522,1.147584,0.1732771,-0.02623765,1.012231,0.07115798,12.394,-23.69664,-31.11475,1001.111
4.801214218,-0.4876285,-1.601779,-0.009822596,-0.05800673,0.9662487,0.1165203,12.394,-23.69664,-31.11475,1001.11
4.818874836,0.06384878,-3.514379,0.05121062,-0.0144629,0.9544895,0.1459054,11.71132,-23.69626,-30.67833,1001.11
4.839058876,-0.7940047,-3.93276,-0.4370551,0.00217457,0.9339895,0.185862,11.71132,-23.69626,-30.67833,1001.11
4.859241962,-0.4263533,-4.052298,0.2343103,0.08750862,0.9780487,0.1214061,12.02253,-23.69559,-31.11623,1001.11
4.879426002,1.228079,-3.095998,-0.8032544,0.02011289,1.124892,0.2129701,12.02253,-23.69559,-31.11623,1001.11
4.899610043,0.4315003,-4.231604,-0.2539555,-0.01492412,0.992956,0.1262308,12.02253,-23.69559,-31.11623,1001.11
4.919794083,-1.284207,-4.88906,0.2343103,-0.01752817,1.082443,0.4306626,11.33984,-23.69521,-30.67981,1001.11
4.939978123,1.105528,-4.948829,-2.023919,0.1934439,0.7202941,-0.2103505,11.33984,-23.69521,-30.67981,1001.11
4.960161209,0.7991518,-5.187904,-0.8032544,0.03920124,1.063219,0.1577103,11.71132,-23.69626,-30.67833,1001.11
4.980345249,0.5540509,-3.574148,-0.9863541,-0.03017914,1.059448,0.04338965,11.71132,-23.69626,-30.67833,1001.11
5.000528812,0.370225,-4.649985,-0.5591215,0.01428866,1.049203,0.1657415,11.71132,-23.69626,-30.67833,1001.11
5.020712852,-0.1812522,-4.649985,-0.3760219,-0.04409164,0.9326941,0.1007516,12.00974,-23.39224,-29.86168,1001.11
5.040896416,0.002573525,-5.84536,-0.131889,-0.01368456,0.9701431,0.1321031,12.00974,-23.39224,-29.86168,1001.112
5.061079979,0.8604271,-6.32351,-0.1929222,0.03434337,1.028317,0.05435688,12.01279,-23.38937,-30.6772,1001.112
5.081264019,1.166803,-5.247673,-0.8642877,0.02903327,1.028747,0.05194025,12.01279,-23.38937,-30.6772,1001.112
5.098924637,0.9217024,-5.486748,-0.681188,0.02062916,0.9662212,0.04146997,12.01279,-23.38937,-30.6772,1001.112
5.119108677,0.125124,-5.128135,-0.681188,-0.002388685,1.033548,0.1070657,11.71155,-23.69604,-30.74106,1001.112
5.139292717,-0.1812522,-5.546516,-0.681188,0.001844544,0.9629411,0.09982302,11.71155,-23.69604,-30.74106,1001.112
5.159475803,0.5540509,-6.024666,-0.8642877,0.02977675,1.004782,0.1731115,12.38591,-23.38888,-31.11486,1001.114
5.179659843,-0.05870173,-5.606285,-0.9863541,-0.02289253,1.01364,0.1295713,12.38591,-23.38888,-31.11486,1001.114
5.199843884,-0.4263533,-5.964898,-0.9253209,0.02343774,0.9708888,0.1612585,11.71132,-23.69626,-30.67833,1001.114
5.220027447,0.2476745,-5.426979,-0.9253209,-0.01062576,0.9973297,0.08251822,11.71132,-23.69626,-30.67833,1001.114
5.240211010,0.2476745,-5.546516,-0.8032544,0.02371581,1.028568,0.1108215,11.71132,-23.69626,-30.67833,1001.112
5.260395050,0.002573525,-4.948829,-0.7422212,0.01075675,1.023734,0.09030823,11.33984,-23.69521,-30.67981,1001.112
5.280578613,-0.4876285,-5.247673,-0.5591215,0.01219682,0.9439169,0.1281399,11.33984,-23.69521,-30.67981,1001.112
5.300762653,-0.5489038,-5.307441,-0.3149887,0.001193769,0.9761481,0.1351196,11.3334,-23.3859,-31.11905,1001.112
5.320946216,-0.119977,-5.36721,-0.8032544,0.01795031,1.026362,0.1292766,11.3334,-23.3859,-31.11905,1001.11
5.341129780,0.370225,-5.008597,-0.7422212,0.008886614,1.019839,0.04060203,11.3334,-23.3859,-31.11905,1001.11
5.361313820,-0.1812522,-5.128135,-0.3760219,0.04111304,0.9061574,0.1190782,11.33984,-23.69521,-30.67981,1001.108
5.378974438,0.2476745,-4.829291,-0.5591215,0.004767199,1.040818,0.06875872,11.33984,-23.69521,-30.67981,1001.108
5.399158478,0.002573525,-3.93276,-0.4980884,0.0208591,1.02574,0.09860507,11.34955,-24.06452,-30.67968,1001.108
5.419342518,0.125124,-3.095998,-0.8032544,0.04447059,1.026562,0.1487051,11.34955,-24.06452,-30.67968,1001.108
5.439526081,-0.1812522,-2.856923,-0.4370551,0.02723962,0.9760165,0.1384849,11.34955,-24.06452,-30.67968,1001.11
5.459709644,0.370225,-2.438541,-0.4980884,0.03519224,0.9965823,0.1286619,10.98778,-24.43279,-30.68103,1001.11
5.479893684,0.125124,-2.259235,-0.681188,0.01660012,0.9781891,0.1477886,10.98778,-24.43279,-30.68103,1001.112
5.500077248,0.4927756,-2.079929,-0.5591215,-0.01266649,0.9668329,0.07656519,11.33984,-23.69521,-30.67981,1001.112
5.520261288,-0.3038028,-1.960391,-0.5591215,0.007232798,0.9950441,0.1442433,11.33984,-23.69521,-30.67981,1001.112
5.540444851,0.125124,-1.781085,-0.2539555,0.01380795,0.969061,0.1845927,11.33984,-23.69521,-30.67981,1001.112
5.560628414,0.125124,-1.422472,-0.4980884,0.02016973,0.9632516,0.09590958,11.33035,-23.38877,-30.30352,1001.112
5.580812454,0.2476745,-1.601779,-0.2539555,0.01801057,0.9820017,0.1074753,11.33035,-23.38877,-30.30352,1001.112
5.600996494,-0.1812522,-1.482241,-0.4370551,0.02003072,1.013705,0.1382682,11.33843,-23.69653,-30.30341,1001.112
5.621179581,0.002573525,-1.721316,-0.4980884,0.03626344,1.026645,0.1769408,11.33843,-23.69653,-30.30341,1001.112
5.638841152,0.5540509,-1.781085,-0.4370551,0.02042093,0.9810028,0.1629229,11.33843,-23.69653,-30.30341,1001.112
5.659024239,0.002573525,-1.900623,-0.131889,0.02405479,0.9597415,0.1624968,11.72102,-24.06557,-30.6782,1001.112
5.679208279,0.3089498,-1.661547,-0.3149887,0.01630902,1.001633,0.1774483,11.72102,-24.06557,-30.6782,1001.112
5.699392319,0.06384878,-1.781085,-0.2539555,0.006706144,0.9585055,0.163471,11.71296,-23.69471,-31.11746,1001.112
5.719575882,-0.1812522,-1.601779,-0.3149887,0.008385399,0.9786161,0.1901422,11.71296,-23.69471,-31.11746,1001.112
5.739759445,0.06384878,-1.661547,-0.2539555,0.03008003,0.9794371,0.1886668,11.71961,-24.06689,-30.3018,1001.112
5.759943485,-0.05870173,-1.482241,-0.3149887,0.01850681,0.9792894,0.186248,11.71961,-24.06689,-30.3018,1001.112
5.780127048,0.002573525,-1.661547,-0.3149887,0.01124514,0.9816955,0.1770611,11.71961,-24.06689,-30.3018,1001.117
5.800311089,0.125124,-2.139698,-0.4370551,0.004905252,0.9873761,0.1810755,10.96696,-23.69548,-30.30489,1001.117
5.820495129,-0.2425275,-2.558079,-0.4980884,0.02010123,0.9672841,0.177736,10.96696,-23.69548,-30.30489,1001.116
5.840678215,-0.119977,-2.677616,-0.5591215,0.02421739,0.9856815,0.1853929,10.5888,-23.38534,-30.68287,1001.116
5.860862255,-0.5489038,-2.97646,-0.4370551,-0.006110894,0.9808184,0.1906937,10.5888,-23.38534,-30.68287,1001.117
5.881046295,-0.05870173,-3.275304,-0.6201548,0.03638435,0.9766336,0.1876289,10.5888,-23.38534,-30.68287,1001.117
5.901230335,-0.2425275,-3.514379,-0.1929222,0.006407587,0.9426563,0.1977054,11.33175,-23.38744,-30.67991,1001.117
5.918890953,0.4315003,-2.916691,-0.4370551,-0.004965234,1.005402,0.2052895,11.33175,-23.38744,-30.67991,1001.117
5.939074516,0.5540509,-2.856923,-0.4370551,0.02618175,0.9828233,0.1833871,10.96192,-23.38485,-31.12052,1001.117
5.959258080,0.4315003,-2.856923,-0.7422212,0.01435369,0.9636533,0.1932434,10.96192,-23.38485,-31.12052,1001.117
5.979441643,0.06384878,-3.215535,-0.4980884,0.02676149,0.9744082,0.2021966,10.96192,-23.38485,-31.12052,1001.116
5.999625683,-0.1812522,-3.633916,-0.3760219,-0.005009571,0.9698471,0.1749041,10.21592,-23.38562,-30.30795,1001.116
6.019809723,-0.365078,-3.275304,-0.5591215,0.03686153,0.9771926,0.1808271,10.21592,-23.38562,-30.30795,1001.116
6.039992809,-0.1812522,-2.49831,-0.2539555,0.03712159,0.9560309,0.1653237,10.59384,-23.69597,-29.86724,1001.116
6.060176849,-0.4876285,-1.960391,-0.4980884,0.02425354,0.9828526,0.1775515,10.59384,-23.69597,-29.86724,1001.114
6.080360889,-0.365078,-1.123629,0.1122438,0.002886251,0.9944438,0.1982489,10.59384,-23.69597,-29.86724,1001.114
6.100544930,0.6153261,-0.2270973,-0.4980884,-0.009900371,0.9757469,0.1589707,10.5888,-23.38534,-30.68287,1001.116
6.120728016,0.06384878,-0.8247849,-0.4370551,0.03207214,0.9749938,0.1511088,10.5888,-23.38534,-30.68287,1001.116
6.140912056,-1.039106,-0.8247849,-0.4980884,-0.01890605,0.9237092,0.1161076,10.97807,-24.06347,-30.68116,1001.112
6.161096096,-0.85528,-0.8845536,-0.3149887,0.04203822,1.025741,0.2766647,10.97807,-24.06347,-30.68116,1001.112
6.181279659,-0.4263533,-1.004091,-0.3149887,0.003865015,0.9956408,0.07905742,10.97807,-24.06347,-30.68116,1001.114
6.198940277,-1.222932,-0.7052474,0.4784431,-0.0009065826,0.9881253,0.243382,10.97807,-24.06347,-30.68116,1001.114
6.219124317,-1.039106,0.430359,0.05121062,-0.01631703,0.9480388,0.1584317,10.97807,-24.06347,-30.68116,1001.112
6.239308357,0.4315003,-0.2270973,0.1732771,0.02882882,1.002256,0.2309668,10.22542,-23.69205,-30.68424,1001.112
6.259491444,-0.9165553,0.01197769,-0.2539555,0.07123937,0.9272906,0.1340498,10.22542,-23.69205,-30.68424,1001.112
6.279675484,0.2476745,0.2510527,0.05121062,0.007890756,0.9804917,0.1468738,10.22706,-23.69051,-31.12337,1001.112
6.299859524,0.7991518,-0.3466348,0.2953435,0.003437363,0.9894803,0.1621425,10.22706,-23.69051,-31.12337,1001.114
6.320043564,-0.05870173,-1.422472,-0.4980884,0.03196009,1.022828,0.2133656,10.22706,-23.69051,-31.12337,1001.114
6.340226650,-0.4876285,-2.259235,-0.131889,0.01869311,1.043925,0.1670903,10.97807,-24.06347,-30.68116,1001.117
6.360410690,-0.5489038,-2.199466,-0.8642877,0.06551716,0.9605516,0.1916472,10.97807,-24.06347,-30.68116,1001.117
6.380594730,-0.1812522,-2.319004,-0.8642877,0.03052769,1.10425,0.06267752,10.6066,-24.06242,-30.68264,1001.117
6.400778293,-0.4263533,-1.900623,-0.681188,0.008950653,1.012529,0.1426405,10.6066,-24.06242,-30.68264,1001.117
6.420961857,0.002573525,-2.737385,-0.4980884,0.003009453,0.9078851,0.03450223,10.6066,-24.06242,-30.68264,1001.117
6.441145897,0.4315003,-4.351141,-0.2539555,-0.00232667,1.107301,0.1455059,10.98778,-24.43279,-30.68103,1001.117
6.461329460,0.370225,-4.291373,-0.8642877,-0.01477079,0.9813927,0.0710174,10.98778,-24.43279,-30.68103,1001.117
6.478990078,-0.5489038,-5.008597,-0.9253209,0.0561615,1.017047,0.1484996,10.96837,-23.69416,-30.68129,1001.117
6.499174118,0.06384878,-5.725822,-0.6201548,0.01786456,0.8752331,0.07568065,10.96837,-23.69416,-30.68129,1001.117
6.519358158,-0.9165553,-6.32351,-0.7422212,0.004064333,1.055536,0.2447089,10.96837,-23.69416,-30.68129,1001.117
6.539542198,0.5540509,-5.905129,-1.596686,0.04066793,1.063924,0.03996813,10.97807,-24.06347,-30.68116,1001.116
6.559725284,0.125124,-6.80166,-0.7422212,0.03997497,0.9218484,0.04980851,10.97807,-24.06347,-30.68116,1001.116
6.579909325,-0.119977,-4.829291,-0.9863541,0.02506662,0.9955614,0.1675835,10.6066,-24.06242,-30.68264,1001.117
6.600093365,-1.590583,-4.112066,0.1122438,0.007252109,0.9134705,0.1616057,10.6066,-24.06242,-30.68264,1001.117
6.620276928,-1.222932,-3.036229,-0.8032544,-0.05805469,1.008716,0.1825635,10.6066,-24.06242,-30.68264,1001.117
6.640460491,0.6766014,-3.753454,0.2343103,0.03729605,1.022598,0.09803216,10.59689,-23.6931,-30.68276,1001.117
6.660644531,0.370225,-2.319004,-0.6201548,-0.03357464,1.021016,0.0538255,10.59689,-23.6931,-30.68276,1001.119
6.680828094,0.2476745,-3.155766,0.1122438,0.04490617,0.9521467,0.08008271,10.22542,-23.69205,-30.68424,1001.119
6.701012134,-0.119977,-2.737385,-0.7422212,0.03294661,1.022728,0.1272363,10.22542,-23.69205,-30.68424,1001.119
6.721195221,0.4927756,-4.231604,-0.131889,0.01761046,0.8949483,0.1393275,10.22542,-23.69205,-30.68424,1001.119
6.738856792,-0.3038028,-2.139698,-1.169454,0.04156641,0.9879183,0.1323738,10.23371,-24.06269,-30.30772,1001.119
6.759039879,0.9829776,-3.574148,-0.681188,0.05410337,0.9503146,0.0342938,10.23371,-24.06269,-30.30772,1001.119
6.779223919,-0.365078,-2.677616,-0.8032544,0.00808055,0.9255099,0.121456,10.6066,-24.06242,-30.68264,1001.119
6.799407959,0.370225,-2.378773,-0.5591215,-0.001463208,1.037127,0.08961805,10.6066,-24.06242,-30.68264,1001.119
6.819591999,0.3089498,-2.259235,-0.3149887,-0.0292024,0.9782768,0.07049033,10.6066,-24.06242,-30.68264,1001.119
6.839775085,-0.05870173,-2.378773,-0.3760219,-0.009729527,1.042014,0.1218416,10.23512,-24.06137,-30.68411,1001.123
6.859959125,0.370225,-2.139698,-0.3760219,0.01003164,0.9641086,0.09204873,10.23512,-24.06137,-30.68411,1001.123
6.880143166,-0.119977,-1.661547,-0.4370551,0.06508402,0.997462,0.1335013,9.85253,-23.69233,-30.30933,1001.121
6.900326729,0.370225,-1.302935,-0.07085582,0.0142218,1.016635,0.07848455,9.85253,-23.69233,-30.30933,1001.121
6.920510769,-0.85528,-0.9443224,-0.131889,0.01161027,0.9933528,0.07705442,10.23512,-24.06137,-30.68411,1001.121
6.940693855,-0.365078,-1.123629,0.05121062,0.01032227,1.018948,0.1325472,10.23512,-24.06137,-30.68411,1001.121
6.960877895,-0.1812522,-0.3466348,-0.131889,0.01025886,0.9847257,0.1143528,10.23512,-24.06137,-30.68411,1001.117
6.981061935,0.370225,0.1315152,-0.07085582,0.02706252,0.9914321,0.09840354,10.22542,-23.69205,-30.68424,1001.117
7.001245975,0.06384878,0.6096652,0.2343103,0.01114277,0.9520094,0.09229422,10.22542,-23.69205,-30.68424,1001.117
7.018906593,-0.05870173,0.8487403,0.05121062,0.01244568,0.9634139,0.1168474,10.60519,-24.06374,-30.30624,1001.117
7.039090633,0.1863993,0.7292027,-0.07085582,-0.00416653,0.9811543,0.1108972,10.60519,-24.06374,-30.30624,1001.119
7.059273720,0.125124,0.4901277,-0.009822596,-0.001834719,0.9872356,0.1363167,10.60519,-24.06374,-30.30624,1001.119
7.079457760,0.002573525,0.430359,0.05121062,0.02058302,0.9682246,0.1325014,10.6163,-24.43173,-30.68251,1001.119
7.099641323,-0.05870173,0.3108215,0.05121062,0.02225769,0.9889259,0.1484794,10.6163,-24.43173,-30.68251,1001.119
7.119825363,0.125124,-0.1673286,-0.009822596,0.01580826,0.9643265,0.1275654,9.513226,-24.79635,-31.12595,1001.119
7.140008926,-0.1812522,-0.4661724,-0.07085582,0.02042327,0.9811959,0.1434633,9.513226,-24.79635,-31.12595,1001.119
7.160192490,0.06384878,-1.06386,-0.1929222,0.008482636,0.9711418,0.1622587,9.513226,-24.79635,-31.12595,1001.115
7.180376530,-0.119977,-1.123629,-0.4370551,0.0252721,0.978614,0.1667612,10.23512,-24.06137,-30.68411,1001.115
7.200560570,0.06384878,-1.243166,-0.3760219,0.01248774,0.9987804,0.1662059,10.23512,-24.06137,-30.68411,1001.115
7.220743656,0.125124,-1.123629,-0.3149887,0.02109721,1.004702,0.1682568,9.883057,-24.79895,-30.68534,1001.115
7.240927696,0.1863993,-1.004091,-0.2539555,0.01833877,0.9935141,0.1685261,9.883057,-24.79895,-30.68534,1001.117
7.261111736,0.1863993,-0.7052474,-0.3149887,0.01188795,1.008446,0.1678579,9.883057,-24.79895,-30.68534,1001.117
7.281295776,0.125124,-0.7052474,-0.3149887,0.005848686,0.9895305,0.1606801,10.24342,-24.43201,-30.30759,1001.117
7.298956394,-0.2425275,-1.243166,-0.2539555,0.01698117,0.9863143,0.159627,10.24342,-24.43201,-30.30759,1001.117
7.319139957,0.1863993,-1.243166,-0.1929222,0.009693851,0.9904794,0.1684787,9.871942,-24.43095,-30.30907,1001.117
7.339323997,0.3089498,-1.362704,-0.4370551,0.01723837,0.964916,0.1679617,9.871942,-24.43095,-30.30907,1001.117
7.359507561,0.1863993,-1.422472,-0.3760219,0.007612085,0.9633778,0.1621063,9.871942,-24.43095,-30.30907,1001.115
7.379691124,0.002573525,-1.302935,-0.3760219,0.01072521,0.9853587,0.1489124,10.23676,-24.05982,-31.12325,1001.115
7.399875164,-0.05870173,-2.139698,-0.4370551,0.02700861,0.9550856,0.1478027,10.23676,-24.05982,-31.12325,1001.113
7.420059204,-0.05870173,-1.781085,-0.4370551,0.02321424,0.9892555,0.1655151,9.862236,-24.06164,-30.3092,1001.113
7.440242290,-0.05870173,-2.02016,-0.4980884,0.003539477,0.9814394,0.1425197,9.862236,-24.06164,-30.3092,1001.113
7.460426330,0.125124,-2.378773,-0.4370551,0.02773467,0.9741749,0.1783478,10.23676,-24.05982,-31.12325,1001.113
7.480610371,-0.05870173,-1.840854,-0.1929222,0.009833781,0.9787776,0.1760323,10.23676,-24.05982,-31.12325,1001.11
7.500794411,-0.119977,-1.54201,-0.3760219,0.0308752,0.9539281,0.17259,10.23676,-24.05982,-31.12325,1001.11
7.520977497,0.2476745,-1.54201,0.05121062,0.002649453,0.974974,0.1579638,10.23371,-24.06269,-30.30772,1001.114
7.541161537,0.002573525,-1.721316,-0.1929222,0.005008826,0.9794559,0.1492905,10.23371,-24.06269,-30.30772,1001.114
7.561345577,-0.2425275,-1.54201,-0.2539555,0.01049489,0.9644859,0.1523923,9.85394,-23.691,-30.68572,1001.106
7.579006195,-0.119977,-1.661547,0.05121062,0.003377609,0.9545902,0.1624252,9.85394,-23.691,-30.68572,1001.106
7.599189758,0.2476745,-1.661547,-0.009822596,0.014128,0.9828086,0.1668606,9.85394,-23.691,-30.68572,1001.11
7.619373798,0.370225,-1.422472,0.2953435,0.009223971,0.9905236,0.1144691,10.24483,-24.43068,-30.68399,1001.11
7.639557838,-0.05870173,-1.721316,0.05121062,0.0166597,1.013065,0.1489654,10.24483,-24.43068,-30.68399,1001.11
7.659740925,0.1863993,-2.259235,0.1732771,0.01915836,1.005792,0.1531971,9.85253,-23.69233,-30.30933,1001.11
7.679924965,0.2476745,-2.49831,-0.2539555,0.01463235,1.021381,0.1379415,9.85253,-23.69233,-30.30933,1001.108
7.700109005,0.125124,-2.558079,-0.3760219,0.01597242,1.029072,0.1950223,9.85253,-23.69233,-30.30933,1001.108
7.720293045,0.06384878,-3.036229,-0.1929222,0.03389655,0.9828654,0.1906754,9.481054,-23.69128,-30.3108,1001.112
7.740476131,0.002573525,-2.856923,-0.1929222,0.01146528,0.9640207,0.151895,9.481054,-23.69128,-30.3108,1001.112
7.760660171,-0.05870173,-3.693685,-0.2539555,0.01940358,0.9853427,0.1634969,9.870297,-24.4325,-29.86994,1001.112
7.780844212,0.2476745,-3.394841,-0.5591215,0.03116097,0.970659,0.1471317,9.870297,-24.4325,-29.86994,1001.106
7.801027775,0.002573525,-3.45461,-0.7422212,0.03289574,1.026279,0.159908,9.870297,-24.4325,-29.86994,1001.106
7.821211338,0.2476745,-3.514379,-0.681188,0.01658241,1.058926,0.1659305,9.500466,-24.4299,-30.31055,1001.106
7.838872433,0.1863993,-3.633916,-0.4980884,0.00500214,0.9798726,0.156111,9.500466,-24.4299,-30.31055,1001.106
7.859056473,0.1863993,-3.574148,-0.6201548,0.006474816,0.9781643,0.1351518,9.500466,-24.4299,-30.31055,1001.11
7.879239559,0.1863993,-3.394841,-0.4980884,0.01930368,0.9539204,0.1560629,9.500466,-24.4299,-30.31055,1001.11
7.899423599,-0.2425275,-2.856923,-0.3760219,0.02191916,0.9765589,0.1735377,9.500466,-24.4299,-30.31055,1001.112
7.919607639,-0.2425275,-2.558079,-0.4370551,0.01658018,0.9794491,0.1672771,9.501876,-24.42858,-30.68694,1001.112
7.939791679,-0.119977,-2.079929,-0.4980884,0.01417694,0.9790978,0.1502431,9.501876,-24.42858,-30.68694,1001.11
7.959974766,0.002573525,-2.02016,-0.6201548,0.02133309,0.9854196,0.1586297,9.501876,-24.42858,-30.68694,1001.11
7.980158806,0.125124,-2.259235,-0.1929222,0.003679806,0.9301248,0.1380978,9.501876,-24.42858,-30.68694,1001.108
8.000342846,-0.1812522,-1.840854,-0.07085582,0.004165345,0.9690819,0.1680633,9.85394,-23.691,-30.68572,1001.108
8.020526409,0.2476745,-1.840854,-0.131889,0.01468243,1.016795,0.1607202,9.85394,-23.691,-30.68572,1001.108
8.040709972,-0.4263533,-1.243166,-0.1929222,0.01446867,0.9943822,0.1729282,9.85394,-23.691,-30.68572,1001.108
8.060893536,-0.3038028,-1.123629,-0.07085582,0.02020928,0.9984105,0.1661873,8.820837,-24.42665,-30.68965,1001.11
8.081077576,0.125124,-0.8247849,0.05121062,0.01653544,0.9835072,0.1488672,8.820837,-24.42665,-30.68965,1001.11
8.101261616,0.002573525,-0.9443224,-0.07085582,0.007832881,0.9854027,0.1401589,9.492169,-24.05927,-30.68707,1001.109
8.118922234,-0.05870173,-1.004091,-0.009822596,0.01134655,0.9735967,0.1632763,9.492169,-24.05927,-30.68707,1001.109
8.139106274,0.125124,-1.362704,-0.2539555,0.01757062,0.9777335,0.1463185,9.492169,-24.05927,-30.68707,1001.11
8.159290314,-0.119977,-1.482241,0.2953435,0.01044214,1.008497,0.1605622,9.109579,-23.69023,-30.31228,1001.11
8.179473400,-0.05870173,-1.482241,0.1122438,0.01267157,1.023567,0.1589108,9.109579,-23.69023,-30.31228,1001.109
8.199657440,-0.1812522,-2.199466,-0.3149887,0.01343805,0.920272,0.16903,9.490761,-24.06059,-30.31067,1001.109
8.219841480,0.125124,-2.558079,-0.2539555,0.02718403,0.9791768,0.2105623,9.490761,-24.06059,-30.31067,1001.109
8.240025044,0.370225,-2.737385,-0.3760219,0.00992215,1.012155,0.1328999,9.490761,-24.06059,-30.31067,1001.109
8.260208607,-0.119977,-3.45461,-0.4980884,0.03670951,0.9898341,0.1762116,9.1304,-24.42753,-30.68842,1001.11
8.280392170,-0.119977,-3.753454,-0.4370551,0.01808126,0.9752416,0.1540538,9.1304,-24.42753,-30.68842,1001.11
8.300576210,-0.365078,-4.171835,-0.4980884,0.005065009,0.9744048,0.1701137,9.138697,-24.79817,-30.3119,1001.11
8.320760250,-0.4876285,-5.187904,-0.7422212,-0.006887582,1.004947,0.1994443,9.138697,-24.79817,-30.3119,1001.11
8.340943336,-0.6714543,-6.32351,-0.6201548,-0.003463016,0.9606723,0.2228924,9.138697,-24.79817,-30.3119,1001.11
8.361127376,-0.1812522,-7.27981,-1.230487,0.02336212,1.015918,0.2132415,8.830543,-24.79597,-30.68953,1001.11
8.381311416,0.125124,-8.176342,-1.10842,0.01120086,0.9461457,0.1461892,8.830543,-24.79597,-30.68953,1001.109
8.398972034,-0.1812522,-8.893567,-1.535653,0.01523222,1.010753,0.1844426,8.811131,-24.05734,-30.68978,1001.109
8.419156074,-0.85528,-9.849867,-1.230487,0.01942598,0.9426998,0.2127713,8.811131,-24.05734,-30.68978,1001.111
8.439339638,-0.7940047,-10.14871,-1.29152,0.01734911,0.9943254,0.2317998,8.811131,-24.05734,-30.68978,1001.111
8.459523201,0.125124,-10.08894,-1.47462,0.02586044,0.9738194,-0.0328351,9.120694,-24.05822,-30.68855,1001.114
8.479707241,-0.4263533,-11.04524,-1.413587,-0.02808253,0.9620516,0.2424193,9.120694,-24.05822,-30.68855,1001.114
8.499890804,-0.85528,-13.01761,-2.145985,0.05304363,1.03335,0.2587954,9.132044,-24.42599,-31.12755,1001.114
8.520074844,-0.9778305,-13.13715,-1.779786,0.004534093,0.9375138,0.2248552,9.132044,-24.42599,-31.12755,1001.114
8.540258884,-0.85528,-13.37622,-2.207018,0.05909263,0.893517,0.1990884,9.132044,-24.42599,-31.12755,1001.109
8.560441971,-0.6714543,-14.15322,-2.329085,0.02300769,0.9645303,0.2642897,8.830543,-24.79597,-30.68953,1001.109
8.580626011,-0.3038028,-15.5279,-2.023919,0.01359471,1.026952,0.1609228,8.830543,-24.79597,-30.68953,1001.113
8.600810051,-0.365078,-15.88651,-2.207018,0.001866874,1.0402,0.1266546,8.086182,-24.79519,-30.31609,1001.113
8.620994091,-0.7940047,-17.38073,-2.329085,0.01093836,0.92843,0.1244292,8.086182,-24.79519,-30.31609,1001.113
8.641177177,-0.85528,-17.50027,-1.840819,-0.02496406,1.025091,0.1443986,8.076476,-24.42588,-30.31622,1001.113
8.658838272,-0.85528,-17.08189,-2.573218,-0.05280759,0.9779759,-0.03215078,8.076476,-24.42588,-30.31622,1001.113
8.679021835,0.7378766,-17.56004,-2.756317,0.06816991,1.059746,0.2091772,8.076476,-24.42588,-30.31622,1001.113
8.699205875,-0.365078,-16.18536,-2.329085,-0.01297969,1.031004,0.1522835,8.086182,-24.79519,-30.31609,1001.114
8.719389439,-0.365078,-15.5279,-2.329085,0.03083259,0.9175463,0.1767359,8.086182,-24.79519,-30.31609,1001.114
8.739573479,0.5540509,-14.75091,-2.451151,0.04498007,1.023974,0.1661703,8.094243,-25.16605,-29.87683,1001.114
8.759757042,-0.1812522,-13.73484,-2.878384,0.03237025,0.9501905,0.1608358,8.094243,-25.16605,-29.87683,1001.114
8.779940605,-0.3038028,-12.89807,-1.47462,-0.01978102,0.9948717,0.1700686,8.094243,-25.16605,-29.87683,1001.114
8.800124645,0.1863993,-12.95784,-1.779786,0.01383135,1.007732,0.1449713,7.714706,-24.79414,-30.31757,1001.114
8.820308685,-2.448437,-13.13715,-1.901852,-0.0301731,1.019332,0.03335052,7.714706,-24.79414,-30.31757,1001.114
8.840492725,0.002573525,-13.67507,-2.084952,-0.000133493,1.162898,0.2590045,6.962049,-24.42273,-30.32065,1001.114
8.860675812,0.125124,-13.49576,-2.451151,0.01250795,0.9985116,0.0956455,6.962049,-24.42273,-30.32065,1001.114
8.880859852,-0.5489038,-13.07738,-2.268052,0.03504282,1.008469,0.1512804,6.962049,-24.42273,-30.32065,1001.114
8.901043892,0.002573525,-12.06131,-1.840819,0.02597627,1.00171,0.08644388,7.714706,-24.79414,-30.31757,1001.114
8.921227455,-0.5489038,-11.28432,-1.840819,-0.03507462,0.9054081,0.08073484,7.714706,-24.79414,-30.31757,1001.114
8.938888073,0.125124,-11.40385,-1.535653,0.03617926,1.034229,0.1449763,6.98146,-25.16135,-30.32039,1001.114
8.959072113,-0.4876285,-10.50732,-1.657719,-0.02974455,0.9830117,0.08080316,6.98146,-25.16135,-30.32039,1001.114
8.979255676,-0.1812522,-10.86594,-1.47462,0.04021293,0.9800894,0.1380599,6.98146,-25.16135,-30.32039,1001.114
8.999439240,-0.6714543,-10.20848,-1.718753,0.00057049,0.9481043,0.1282399,6.968466,-24.79513,-29.44226,1001.116
9.019623280,-0.2425275,-10.20848,-1.413587,-0.01493597,1.033562,0.135793,6.968466,-24.79513,-29.44226,1001.116
9.039807320,-0.365078,-9.431485,-1.47462,-0.002816124,0.9481137,0.1710646,6.960404,-24.42427,-29.88152,1001.114
9.059991360,-0.05870173,-9.610792,-1.169454,0.01950339,0.9780807,0.1142078,6.960404,-24.42427,-29.88152,1001.114
9.080174446,0.2476745,-9.551023,-1.29152,0.006866524,0.9862011,0.1070882,6.960404,-24.42427,-29.88152,1001.118
9.100358486,-0.365078,-9.909636,-1.718753,0.02495227,1.0055,0.1424779,6.219097,-24.42062,-30.32361,1001.118
9.120542526,0.2476745,-9.849867,-1.535653,0.02960196,1.019419,0.1626966,6.219097,-24.42062,-30.32361,1001.118
9.140726090,0.8604271,-9.072873,-1.29152,0.03696129,1.009573,0.1405945,6.579223,-24.05391,-29.88313,1001.118
9.160909653,0.9217024,-9.610792,-1.47462,0.04304973,1.066382,0.04001328,6.579223,-24.05391,-29.88313,1001.118
9.181093693,-0.365078,-9.73033,-1.840819,-0.001059394,1.00361,0.09868585,5.526708,-24.05093,-29.88732,1001.118
9.201277256,-0.2425275,-10.26825,-1.535653,0.01143083,1.006636,0.1541983,5.526708,-24.05093,-29.88732,1001.117
9.218937874,-0.4876285,-10.38779,-1.535653,0.0245869,0.9957618,0.1466649,5.526708,-24.05093,-29.88732,1001.117
9.239121914,-0.1812522,-10.08894,-1.596686,0.02037719,0.9851431,0.1362427,5.526708,-24.05093,-29.88732,1001.115
9.259305954,-0.365078,-9.252179,-1.47462,0.01605806,0.9839008,0.108489,5.526708,-24.05093,-29.88732,1001.115
9.279489040,0.4315003,-9.610792,-1.657719,0.0362308,1.071349,0.06639727,5.182705,-25.15937,-29.44928,1001.115
9.299673080,0.1863993,-9.013104,-1.596686,0.004426524,0.9895976,0.05412107,5.182705,-25.15937,-29.44928,1001.115
9.319857120,-0.7940047,-8.953336,-1.352553,0.008100095,0.9638628,0.1139431,5.182705,-25.15937,-29.44928,1001.115
9.340041160,-0.2425275,-8.654491,-1.169454,-0.004633243,1.019167,0.1369527,5.155232,-24.04988,-29.8888,1001.115
9.360224724,-0.5489038,-8.355648,-1.169454,-0.001706909,0.9774407,0.09816886,5.155232,-24.04988,-29.8888,1001.115
9.380408287,-0.2425275,-8.415417,-1.230487,0.007678934,0.9978849,0.1515977,4.791818,-24.41969,-29.45102,1001.115
9.400591850,-0.3038028,-8.176342,-1.352553,0.0114779,0.9631244,0.1445785,4.791818,-24.41969,-29.45102,1001.115
9.420775890,-0.1812522,-7.339579,-1.10842,0.02583866,0.9720188,0.1486261,4.791818,-24.41969,-29.45102,1001.115
9.440959930,-0.4263533,-6.443048,-1.047387,0.008565244,0.9653665,0.1095929,5.172999,-24.79005,-29.44941,1001.115
9.461143017,0.002573525,-5.905129,-1.10842,-0.0040368,0.9299331,0.1458907,5.172999,-24.79005,-29.44941,1001.115
9.481327057,-0.119977,-6.024666,-0.9863541,0.005996646,0.9775231,0.150224,4.791818,-24.41969,-29.45102,1001.117
9.498987675,0.3089498,-5.606285,-0.7422212,0.003536674,0.9812077,0.1658713,4.791818,-24.41969,-29.45102,1001.117
9.519171715,0.370225,-5.187904,-0.8642877,0.0111852,1.027051,0.1473039,4.791818,-24.41969,-29.45102,1001.117
9.539355755,-0.05870173,-5.008597,-0.681188,0.0202345,0.9569711,0.1429841,5.151944,-24.05297,-29.01054,1001.117
9.559539795,0.06384878,-4.590216,-0.7422212,0.02605196,0.992454,0.2380756,5.151944,-24.05297,-29.01054,1001.118
9.579722881,0.6766014,-4.470679,-0.7422212,0.02448633,1.002961,0.2022785,5.174644,-24.78851,-29.88854,1001.118
9.599906921,-0.119977,-3.813223,-0.681188,-0.008444759,0.9368604,0.07596579,5.174644,-24.78851,-29.88854,1001.122
9.620090485,-0.05870173,-4.829291,-0.7422212,-0.001553273,1.003609,0.1468586,5.174644,-24.78851,-29.88854,1001.122
9.640274525,-0.4263533,-5.606285,-0.8032544,0.00944575,0.971045,0.1734468,5.171355,-24.7916,-29.01028,1001.122
9.660458565,-0.6714543,-6.502817,-1.169454,0.03832414,1.015268,0.2034749,5.171355,-24.7916,-29.01028,1001.122
9.680641651,-0.3038028,-7.638422,-1.10842,0.01113561,0.9910623,0.1607027,5.172999,-24.79005,-29.44941,1001.124
9.700825691,0.06384878,-8.71426,-1.230487,-0.005827647,0.9576951,0.1775843,5.172999,-24.79005,-29.44941,1001.124
9.721009731,-0.7940047,-9.252179,-1.352553,0.04948612,0.93229,0.08600862,4.801524,-24.789,-29.45089,1001.124
9.741193771,-0.2425275,-5.307441,-0.9863541,0.06110646,1.008838,0.05539183,4.801524,-24.789,-29.45089,1001.124
9.758854389,-0.2425275,-4.351141,-0.5591215,-0.006313968,0.961228,0.01610818,4.801524,-24.789,-29.45089,1001.126
9.779037952,-0.05870173,-2.797154,-0.4370551,-0.05769979,0.9818211,0.06135716,5.542831,-24.79264,-29.0088,1001.126
9.799221516,0.125124,-2.916691,-0.3149887,-0.05716979,0.978021,0.05446896,5.542831,-24.79264,-29.0088,1001.126
9.819405556,-0.1812522,-2.079929,-0.3149887,-0.01907547,0.9784367,0.06950545,4.790174,-24.42123,-29.01189,1001.126
9.839589119,-0.119977,-0.5259411,-0.131889,0.03657892,1.002308,0.09081943,4.790174,-24.42123,-29.01189,1001.126
9.859773159,0.2476745,2.044115,0.1732771,0.1043393,0.9811683,0.1739945,4.790174,-24.42123,-29.01189,1001.124
9.879956722,0.4927756,2.163653,0.4784431,-0.02704618,0.9563745,0.2301407,5.523419,-24.05402,-29.00906,1001.124
9.900140285,0.4315003,0.5498965,0.2953435,-0.1250342,1.002188,0.2521145,5.523419,-24.05402,-29.00906,1001.124
9.920324326,0.1863993,-3.215535,-0.3149887,-0.1181758,0.8747646,0.2126019,4.801524,-24.789,-29.45089,1001.124
9.940508366,-0.4876285,-7.27981,-1.29152,-0.02436662,0.9339997,0.2428318,4.801524,-24.789,-29.45089,1001.124
9.960692406,0.3089498,-11.34409,-1.657719,0.1094396,0.9180402,0.1956072,4.801524,-24.789,-29.45089,1001.124
9.980875492,-0.365078,-7.638422,-1.29152,0.1642136,0.9768615,0.1115383,5.554181,-25.16042,-29.4478,1001.124
10.001059532,0.2476745,-5.606285,-1.047387,0.1153924,0.9849695,0.1492376,5.554181,-25.16042,-29.4478,1001.124
10.021243572,0.1863993,-4.470679,-0.9253209,-0.02056522,0.9797026,0.1838806,4.430048,-24.78795,-29.45237,1001.122
10.038904190,0.1863993,-5.187904,-0.681188,-0.06194118,1.011139,0.1767781,4.430048,-24.78795,-29.45237,1001.122
10.059087753,0.002573525,-5.128135,-1.047387,-0.05734123,0.9900268,0.1627291,4.430048,-24.78795,-29.45237,1001.122
10.079271793,-0.119977,-6.084435,-0.9863541,-0.003114351,0.9729074,0.1623107,4.420342,-24.41864,-29.4525,1001.122
10.099455357,-0.3038028,-6.443048,-0.8642877,0.02575991,0.9781126,0.1691835,4.420342,-24.41864,-29.4525,1001.122
10.119638920,-0.119977,-7.100504,-1.169454,0.03266907,0.9650919,0.1732949,4.045814,-24.42045,-28.63844,1001.122
10.139822960,-0.1812522,-6.861429,-0.8642877,0.04947788,0.9702841,0.2123,4.045814,-24.42045,-28.63844,1001.119
10.160007000,0.3089498,-6.622354,-0.9863541,0.03845154,1.005439,0.1687325,4.045814,-24.42045,-28.63844,1001.119
10.180191040,0.002573525,-6.443048,-1.10842,0.01469298,0.976083,0.1618608,4.43811,-25.15881,-29.01311,1001.121
10.200374126,-0.05870173,-6.443048,-1.047387,0.008532775,0.9665605,0.1845509,4.43811,-25.15881,-29.01311,1001.121
10.220558167,-0.1812522,-6.682123,-0.8642877,-0.02077469,0.9566751,0.2092142,4.816238,-25.53204,-28.19597,1001.119
10.240742207,-0.365078,-6.741891,-1.10842,0.009054755,1.002713,0.2042426,4.816238,-25.53204,-28.19597,1001.119
10.260925770,-0.365078,-7.27981,-1.047387,0.01855783,0.9747805,0.2012428,4.816238,-25.53204,-28.19597,1001.121
10.281109333,0.125124,-7.160273,-0.9253209,0.0146178,0.9022109,0.1842416,4.056928,-24.78844,-29.01472,1001.121
10.301293373,-0.05870173,-7.459116,-0.8032544,0.01709794,0.975607,0.213426,4.056928,-24.78844,-29.01472,1001.121
10.318953991,-0.119977,-7.698191,-1.047387,0.02482803,0.9353283,0.1824491,4.436701,-25.16013,-28.63671,1001.121
10.339137554,-0.7327295,-7.997035,-1.10842,0.02224682,0.9483812,0.2303967,4.436701,-25.16013,-28.63671,1001.121
10.359321594,0.002573525,-8.176342,-1.230487,0.02649994,0.9964164,0.1812228,4.436701,-25.16013,-28.63671,1001.121
10.379505634,-0.1812522,-7.877497,-1.352553,0.03049318,0.907046,0.111326,4.436701,-25.16013,-28.63671,1001.121
10.399689674,-0.3038028,-7.937266,-1.718753,0.03471704,0.9546015,0.2081186,4.436701,-25.16013,-28.63671,1001.121
10.419872761,0.3089498,-7.937266,-1.29152,0.01178497,1.056061,0.203348,4.044169,-24.422,-28.19932,1001.121
10.440056801,-0.4263533,-7.578654,-1.230487,0.019304,0.9529774,0.20227,4.044169,-24.422,-28.19932,1001.121
10.460240841,0.3089498,-7.698191,-0.8642877,0.004568588,0.9751636,0.1905661,3.674337,-24.4194,-28.63992,1001.123
10.480424404,0.4315003,-6.921198,-1.169454,-0.00405681,1.00951,0.2321318,3.674337,-24.4194,-28.63992,1001.123
10.500607967,-1.651858,-9.311948,-0.8032544,0.03634219,0.7807365,0.2022422,3.674337,-24.4194,-28.63992,1001.121
10.520792007,-0.7327295,-9.19241,-1.10842,0.02168702,0.9922721,0.3475604,3.314212,-24.78612,-29.0804,1001.121
10.540975571,-0.365078,-8.953336,-0.681188,0.02081748,0.9459155,0.2814417,3.314212,-24.78612,-29.0804,1001.121
10.561159611,-0.6714543,-9.252179,-1.657719,0.03786553,0.9727191,0.2425336,2.939448,-24.78816,-28.20362,1001.121
10.581342697,-0.4263533,-10.02917,-0.7422212,0.02325086,0.9845262,0.2515473,2.939448,-24.78816,-28.20362,1001.117
10.599004269,-1.161656,-9.132642,-1.535653,0.0130266,0.9144816,0.1659965,2.939448,-24.78816,-28.20362,1001.117
10.619187355,-0.05870173,-9.909636,-0.9253209,-0.005229618,0.9082382,0.1819571,3.310925,-24.78921,-28.20214,1001.123
10.639371395,-0.1812522,-9.19241,-1.352553,0.009128319,0.919807,0.06295122,3.310925,-24.78921,-28.20214,1001.123
10.659555435,-1.284207,-9.431485,-1.413587,-0.01945026,0.8886285,0.1348775,3.32063,-25.15853,-28.20202,1001.123
10.679739475,0.4315003,-9.969404,-1.779786,-0.005247712,1.070174,0.122879,3.32063,-25.15853,-28.20202,1001.123
10.699923038,0.002573525,-10.50732,-1.535653,-0.009707473,0.9606678,0.1163389,3.32063,-25.15853,-28.20202,1001.125
10.720106602,-1.590583,-9.73033,-1.657719,0.03504021,1.087545,0.1903126,2.929743,-24.41885,-28.20375,1001.125
10.740290165,-0.119977,-9.252179,-1.962885,0.0421299,1.058422,0.2549284,2.929743,-24.41885,-28.20375,1001.125
10.760474205,0.2476745,-8.893567,-0.9863541,0.008632793,0.8780853,0.2139413,2.929743,-24.41885,-28.20375,1001.125
10.780658245,-0.4263533,-8.534954,-0.6201548,0.03463347,0.8829451,0.1536625,2.929743,-24.41885,-28.20375,1001.125
10.800841331,1.044253,-9.670561,-1.47462,0.01223673,1.099012,0.1725693,2.929743,-24.41885,-28.20375,1001.125
10.821025372,0.002573525,-9.73033,-1.047387,0.018253,0.959382,0.2388923,2.937804,-24.7897,-27.76449,1001.123
10.841209412,0.1863993,-9.311948,-1.169454,-0.03017865,0.8989658,0.1024966,2.937804,-24.7897,-27.76449,1001.123
10.858870029,1.289354,-8.833798,-1.230487,-0.04847753,1.135797,0.08580085,2.937804,-24.7897,-27.76449,1001.121
10.879054069,-0.7327295,-8.415417,-0.8642877,-0.04106757,1.080794,0.1221686,2.937804,-24.7897,-27.76449,1001.121
10.899238110,-0.6714543,-8.71426,-1.169454,-0.0009893489,1.077057,0.1191163,2.937804,-24.7897,-27.76449,1001.121
10.919421673,-1.284207,-8.295879,-1.047387,0.02573046,1.020171,0.1787745,2.564685,-24.7902,-27.32684,1001.123
10.939605236,-2.01951,-6.144204,-0.6201548,0.08447222,1.067773,0.2059061,2.564685,-24.7902,-27.32684,1001.123
10.959788799,-1.774409,-6.084435,-0.1929222,0.1162235,0.8744129,0.2565303,2.58574,-25.52728,-27.76571,1001.123
10.979972839,-0.4263533,-2.97646,-0.6201548,0.002834047,0.9195626,0.1758437,2.58574,-25.52728,-27.76571,1001.123
11.000156879,0.8604271,-2.079929,-0.4370551,0.02881681,0.9645262,0.1757223,1.88529,-24.78673,-27.76868,1001.123
11.020339966,-0.3038028,-1.362704,-0.131889,-0.02017377,0.9084266,0.1406229,1.88529,-24.78673,-27.76868,1001.123
11.040524006,0.3089498,-1.362704,0.5394764,-0.02483046,0.9355132,0.08958761,1.88529,-24.78673,-27.76868,1001.123
11.060708046,-1.406757,-0.5259411,-0.009822596,0.006275127,1.033297,0.194147,1.877228,-24.41587,-28.20794,1001.123
11.080892086,-1.039106,-0.9443224,0.2343103,-0.006760768,0.8771016,0.09473066,1.877228,-24.41587,-28.20794,1001.123
11.101075172,-0.4263533,-0.5259411,-0.3149887,0.03721312,0.9877301,0.1936864,1.877228,-24.41587,-28.20794,1001.123
11.121259213,0.3089498,-2.02016,0.2953435,0.02835731,1.124012,0.06988403,1.877228,-24.41587,-28.20794,1001.123
11.138920307,0.2476745,-0.8247849,-0.131889,0.07116424,1.053591,0.1015154,1.877228,-24.41587,-28.20794,1001.123
11.159103870,-0.05870173,-1.06386,-0.3760219,0.03669626,1.032263,0.09968409,2.247059,-24.41846,-27.76733,1001.117
11.179287434,0.125124,-0.6454786,-0.1929222,0.02421162,1.066436,0.1529301,2.247059,-24.41846,-27.76733,1001.117
11.199471474,0.4927756,-0.8247849,-0.1929222,-0.002137015,0.9730165,0.103921,2.546917,-24.05003,-27.76623,1001.121
11.219655514,-0.2425275,-1.004091,0.2343103,-0.0238817,0.9758146,0.1312571,2.546917,-24.05003,-27.76623,1001.121
11.239838600,-0.4263533,-1.362704,-0.4980884,-0.02639051,1.023833,0.1224794,2.546917,-24.05003,-27.76623,1001.121
11.260022640,-0.5489038,-2.199466,-0.4370551,-0.000653115,1.009943,0.09589106,2.265061,-25.15842,-27.39068,1001.121
11.280206680,0.002573525,-1.960391,-0.5591215,0.0261001,0.950001,0.170573,2.265061,-25.15842,-27.39068,1001.121
11.300390720,-0.6714543,-2.378773,-0.2539555,0.02064602,1.002413,0.1541012,1.88529,-24.78673,-27.76868,1001.121
11.320573807,-0.4263533,-1.960391,-0.4980884,0.02185364,1.022423,0.1413576,1.88529,-24.78673,-27.76868,1001.121
11.340757847,-0.85528,-2.319004,-0.5591215,0.0002145144,0.8975582,0.1432974,1.88529,-24.78673,-27.76868,1001.121
11.360941887,-0.1812522,-3.275304,-0.5591215,-0.0144805,1.07585,0.1230049,1.88529,-24.78673,-27.76868,1001.111
11.381125450,0.06384878,-3.872992,-0.9253209,0.0119907,1.080718,0.1113843,1.88529,-24.78673,-27.76868,1001.111
11.401309013,-0.7940047,-4.231604,-0.7422212,0.02766961,0.9804311,0.1337058,1.875584,-24.41741,-27.76881,1001.111
11.418970108,0.002573525,-2.797154,-0.5591215,0.06175594,1.034199,0.08849413,1.875584,-24.41741,-27.76881,1001.111
11.439154148,0.2476745,-0.7650161,-0.1929222,-0.004634832,0.981329,0.0437524,1.875584,-24.41741,-27.76881,1001.111
11.459337234,0.3089498,-0.1673286,-0.3149887,-0.02793953,0.9931586,0.08635379,1.52352,-25.15499,-27.77003,1001.111
11.479521274,0.125124,-0.8247849,-0.1929222,-0.01086044,1.015741,0.1310551,1.52352,-25.15499,-27.77003,1001.115
11.499705315,0.370225,-0.9443224,-0.2539555,0.01529492,1.00721,0.1021392,2.255356,-24.7891,-27.3908,1001.115
11.519889355,-0.2425275,-0.8247849,-0.2539555,0.0361659,0.9963874,0.1009212,2.255356,-24.7891,-27.3908,1001.117
11.540072441,-0.05870173,-0.5857099,-0.009822596,0.02066424,1.00198,0.1000815,1.883881,-24.78805,-27.39228,1001.117
11.560256481,0.125124,-0.04779106,-0.131889,0.03081801,0.9995109,0.1199677,1.883881,-24.78805,-27.39228,1001.107
11.580440521,-0.365078,-0.2270973,-0.131889,0.01575634,0.9281443,0.1604238,1.883881,-24.78805,-27.39228,1001.107
11.600624084,0.1863993,-0.5857099,-0.009822596,0.005755011,0.9972994,0.1588877,1.875584,-24.41741,-27.76881,1001.106
11.620808124,0.002573525,-0.9443224,-0.3149887,0.01705154,0.9804973,0.1599983,1.875584,-24.41741,-27.76881,1001.106
11.640991688,-0.2425275,-1.362704,-0.3149887,0.01062989,0.9533458,0.1521716,2.556623,-24.41934,-27.7661,1001.109
11.661175251,0.002573525,-1.422472,-0.131889,0.02145211,0.9758679,0.1448161,2.556623,-24.41934,-27.7661,1001.109
11.678835869,0.125124,-1.422472,-0.131889,0.01115368,0.9896479,0.156782,2.556623,-24.41934,-27.7661,1001.109
11.699019909,-0.119977,-1.422472,-0.1929222,0.03277764,0.9962617,0.1573677,2.256765,-24.78778,-27.7672,1001.109
11.719203949,-0.365078,-1.123629,-0.1929222,0.01888683,0.9486529,0.1491471,2.256765,-24.78778,-27.7672,1001.109
11.739387989,-0.2425275,-0.8845536,-0.131889,0.01290476,1.004062,0.1716623,2.263417,-25.15996,-26.95155,1001.109
11.759571075,0.125124,-0.8247849,0.05121062,0.002854712,0.997654,0.1676575,2.263417,-25.15996,-26.95155,1001.106
11.779755115,0.06384878,-1.123629,-0.131889,0.01171145,0.9832957,0.1629811,2.263417,-25.15996,-26.95155,1001.106
11.799939156,-0.3038028,-1.781085,-0.4980884,0.009951343,0.9691051,0.1743809,1.874174,-24.41874,-27.39241,1001.106
11.820122719,-0.1812522,-2.617848,-0.1929222,0.01920069,0.9618888,0.182983,1.874174,-24.41874,-27.39241,1001.106
11.840306282,0.002573525,-2.97646,-0.4980884,0.0001052369,0.9862376,0.1421331,1.894996,-25.15604,-27.76855,1001.107
11.860490322,-0.2425275,-3.275304,-0.5591215,0.004829068,0.9936823,0.1802273,1.894996,-25.15604,-27.76855,1001.107
11.880673885,0.1863993,-3.633916,-0.6201548,0.009729243,0.9875877,0.1669616,1.894996,-25.15604,-27.76855,1001.107
11.900857925,-0.3038028,-3.574148,-0.7422212,0.03441905,0.9794145,0.1974186,2.256765,-24.78778,-27.7672,1001.107
11.921041965,-0.2425275,-3.394841,-0.4980884,0.01455396,0.98689,0.1956494,2.256765,-24.78778,-27.7672,1001.106
11.941225052,0.06384878,-3.872992,-0.7422212,0.01036622,0.9355336,0.1401414,1.893352,-25.15759,-27.32942,1001.106
11.958886623,0.6153261,-4.470679,-0.8032544,0.001980408,1.030195,0.1585711,1.893352,-25.15759,-27.32942,1001.106
11.979069710,0.002573525,-5.068367,-0.8642877,-0.004687479,0.9837636,0.1401448,1.893352,-25.15759,-27.32942,1001.104
11.999253750,-0.5489038,-5.36721,-0.9863541,0.02601501,0.9565405,0.1950319,1.903057,-25.5269,-27.32929,1001.104
12.019437790,-0.2425275,-5.187904,-0.7422212,0.0216345,0.9599197,0.1897527,1.903057,-25.5269,-27.32929,1001.104
12.039621353,-0.05870173,-5.247673,-0.9253209,0.01071107,0.9861296,0.1688777,1.512404,-24.787,-27.39376,1001.104
12.059804916,0.1863993,-5.187904,-0.681188,-0.006335243,1.000085,0.1531215,1.512404,-24.787,-27.39376,1001.104
12.079988480,0.125124,-5.128135,-0.8642877,0.009329836,1.020499,0.1700465,1.512404,-24.787,-27.39376,1001.104
12.100172520,0.002573525,-5.068367,-0.6201548,0.01484756,1.002329,0.2027667,1.152044,-25.15394,-27.77151,1001.108
12.120356560,-0.1812522,-4.948829,-0.7422212,0.01566549,0.9351779,0.1839194,1.152044,-25.15394,-27.77151,1001.108
12.140540600,-0.119977,-4.948829,-0.9863541,0.01319284,1.020014,0.1758703,1.883881,-24.78805,-27.39228,1001.108
12.160723686,0.370225,-5.725822,-1.10842,0.004018816,0.9821771,0.1177177,1.883881,-24.78805,-27.39228,1001.108
12.180907726,0.2476745,-5.905129,-0.8642877,0.01781808,0.9971147,0.1467017,1.501055,-24.41923,-26.95476,1001.108
12.201091766,-0.2425275,-6.263741,-1.047387,0.02187065,0.9812753,0.1376237,1.501055,-24.41923,-26.95476,1001.108
12.221275806,-0.7327295,-6.502817,-1.230487,0.01420339,1.055728,0.1916598,1.501055,-24.41923,-26.95476,1001.108
12.238936424,-0.610179,-7.100504,-1.230487,0.02793236,0.9575524,0.1935893,1.139285,-24.78749,-26.95611,1001.108
12.259119988,-0.2425275,-7.100504,-1.230487,0.009036006,1.005041,0.1648751,1.139285,-24.78749,-26.95611,1001.109
12.279303551,0.002573525,-7.75796,-1.169454,0.01572384,0.9699521,0.1953124,1.51217,-24.78722,-27.33103,1001.109
12.299487114,0.125124,-7.817729,-1.10842,0.01554674,0.9853675,0.1552311,1.51217,-24.78722,-27.33103,1001.115
12.319671154,-0.6714543,-8.774029,-1.535653,0.003558167,0.9791062,0.1823736,1.51217,-24.78722,-27.33103,1001.115
12.339855194,0.2476745,-9.311948,-1.779786,0.0492924,1.025623,0.2017174,0.7483969,-24.04782,-26.95785,1001.117
12.360039234,-0.1812522,-8.833798,-1.779786,0.02491736,0.9678159,0.1801724,0.7483969,-24.04782,-26.95785,1001.117
12.380222320,-0.610179,-9.371716,-1.413587,0.01027106,0.9422099,0.1996372,1.131224,-24.41663,-27.39537,1001.117
12.400406360,-0.2425275,-9.610792,-1.718753,-0.03716024,0.9563094,0.172737,1.131224,-24.41663,-27.39537,1001.117
12.420590401,-0.119977,-10.32802,-1.657719,-0.00959539,0.9901882,0.1689878,1.131224,-24.41663,-27.39537,1001.117
12.440773964,-0.6714543,-10.68663,-1.901852,0.005963271,0.9796118,0.1838398,1.512404,-24.787,-27.39376,1001.117
12.460957527,-0.3038028,-10.62686,-1.718753,0.02167675,0.9566258,0.1799557,1.512404,-24.787,-27.39376,1001.119
12.481141567,-0.119977,-10.50732,-1.779786,-0.006367099,1.002299,0.1740886,0.3946886,-24.78694,-26.51994,1001.119
12.498802185,-0.4263533,-10.98547,-1.962885,0.01885515,0.9508817,0.1686547,0.3946886,-24.78694,-26.51994,1001.117
12.518985748,-0.3038028,-11.7027,-1.962885,0.004895354,0.9875273,0.214653,0.3946886,-24.78694,-26.51994,1001.117
12.539169788,-0.5489038,-12.06131,-2.023919,0.01203058,0.9563522,0.1931023,0.7645206,-24.78954,-26.07933,1001.117
12.559353828,-1.222932,-13.19692,-2.084952,0.03560125,0.9219095,0.1836275,0.7645206,-24.78954,-26.07933,1001.117
12.579537868,-0.9165553,-13.7946,-2.451151,-0.0181591,0.9793232,0.225716,0.02015972,-24.78876,-25.70589,1001.117
12.599720955,-0.05870173,-14.69114,-2.390118,0.02460368,0.9545945,0.144877,0.02015972,-24.78876,-25.70589,1001.117
12.619904995,0.9829776,-14.87044,-2.451151,0.0418358,0.9259433,0.1282273,0.02015972,-24.78876,-25.70589,1001.117
12.640089035,-0.2425275,-15.16929,-2.145985,0.02820593,0.9752133,0.172042,-0.3676748,-24.04621,-26.52315,1001.117
12.660272598,0.6766014,-14.98998,-2.573218,0.01243319,1.082288,0.1980271,-0.3676748,-24.04621,-26.52315,1001.115
12.680456161,-0.9165553,-15.58767,-2.451151,-0.02409943,0.9530736,0.1765465,0.3916349,-24.78981,-25.70441,1001.115
12.700640201,-0.7327295,-16.36466,-2.329085,-0.02971367,0.8965769,0.2951369,0.3916349,-24.78981,-25.70441,1001.115
12.720823765,-0.365078,-17.20142,-2.512184,-0.01036618,0.8948969,0.1515322,0.0312748,-25.15675,-26.08216,1001.115
12.741007805,-0.119977,-17.32096,-2.573218,0.02055412,1.00936,0.1863535,0.0312748,-25.15675,-26.08216,1001.117
12.761191368,-1.529308,-17.38073,-2.878384,0.02904242,1.064301,0.2287883,0.0312748,-25.15675,-26.08216,1001.117
12.778852463,-0.7940047,-18.09796,-3.00045,-0.02475921,0.9278296,0.1804271,-0.3513165,-24.7877,-25.70737,1001.117
12.799036503,-0.4263533,-18.81518,-3.18355,0.03102924,1.060391,0.1863749,-0.3513165,-24.7877,-25.70737,1001.117
12.819219589,-0.4876285,-18.93472,-2.939417,-0.01782093,0.9520144,0.1950066,-0.3513165,-24.7877,-25.70737,1001.116
12.839403629,0.6766014,-20.36917,-3.427683,0.07527341,1.070442,0.2161907,-0.3513165,-24.7877,-25.70737,1001.116
12.859587669,0.1863993,-21.14616,-3.244583,0.03546306,1.248014,0.3774177,-0.3513165,-24.7877,-25.70737,1001.116
12.879771233,0.4927756,-22.70015,-3.36665,0.01568235,0.8553405,0.1239488,-0.3529606,-24.78925,-25.26824,1001.116
12.899954796,-1.100381,-23.89552,-3.305616,-0.02385629,0.8957151,0.0488984,-0.3529606,-24.78925,-25.26824,1001.116
12.920138836,-0.7327295,-21.86339,-3.305616,-0.04415844,0.9784524,0.07927431,-1.03259,-24.786,-25.64735,1001.116
12.940322399,-0.7327295,-21.62431,-2.939417,0.009784461,0.9834263,0.1469291,-1.03259,-24.786,-25.64735,1001.114
12.960506439,-1.100381,-19.11403,-2.695284,-0.002418675,0.9160097,0.1353945,-1.03259,-24.786,-25.64735,1001.114
12.980690479,0.4315003,-18.09796,-2.756317,-0.002740846,0.9427022,0.1305708,-1.407119,-24.78782,-24.8333,1001.114
13.000873566,-1.345482,-16.06582,-2.268052,-0.02237562,0.9691116,0.2230871,-1.407119,-24.78782,-24.8333,1001.114
13.021057606,-0.4876285,-14.51183,-1.962885,0.06419263,0.9899138,0.2092608,-1.418468,-24.42005,-24.3943,1001.112
13.041241646,-0.9778305,-14.15322,-1.901852,0.06773618,0.9389936,0.07249008,-1.418468,-24.42005,-24.3943,1001.112
13.058902264,0.6153261,-13.6153,-2.084952,-0.0321193,1.019813,0.07958864,-1.418468,-24.42005,-24.3943,1001.112
13.079086304,-0.9165553,-13.91414,-2.145985,-0.002312275,0.9856756,0.1951635,-1.768889,-25.15608,-24.83465,1001.112
13.099269867,-0.2425275,-14.27275,-2.084952,-0.04174359,1.058086,0.06576264,-1.768889,-25.15608,-24.83465,1001.112
13.119453430,-0.3038028,-14.87044,-2.512184,-0.01387084,0.9867398,0.07063532,-1.038697,-24.79174,-24.01629,1001.112
13.139637470,-0.7940047,-14.93021,-1.901852,-0.009087056,0.9884751,0.1470568,-1.038697,-24.79174,-24.01629,1001.112
13.159821034,0.3089498,-13.6153,-2.207018,0.02792328,0.9597102,0.1225904,-1.038697,-24.79174,-24.01629,1001.112
13.180005074,-0.1812522,-13.13715,-1.962885,0.004831695,0.9938995,0.1583352,-2.133713,-25.52721,-24.02047,1001.112
13.200189114,-0.610179,-12.47969,-2.695284,0.07239776,0.9509873,0.1403562,-2.133713,-25.52721,-24.02047,1001.112
13.220372200,-0.7327295,-13.49576,-1.596686,-0.01438756,0.9490828,0.104925,-1.754176,-25.89912,-23.57973,1001.112
13.240556240,-0.3038028,-12.8383,-2.329085,0.009877881,1.016252,0.1105981,-1.754176,-25.89912,-23.57973,1001.114
13.260740280,-0.2425275,-12.77854,-2.268052,-0.018682,0.9846793,0.1246127,-2.137001,-25.5303,-23.14221,1001.114
13.280924320,0.6766014,-12.36015,-2.145985,0.00352768,0.9824033,0.1430254,-2.137001,-25.5303,-23.14221,1001.114
13.301107406,-0.119977,-12.53946,-1.901852,-0.03395912,0.9719924,0.1107596,-2.137001,-25.5303,-23.14221,1001.114
13.321291447,-0.4263533,-13.37622,-2.145985,0.02757065,0.9887326,0.127058,-2.154768,-24.79013,-23.5816,1001.114
13.338952064,-0.6714543,-13.7946,-1.657719,0.005000766,0.9807287,0.1186607,-2.154768,-24.79013,-23.5816,1001.114
13.359136104,0.125124,-13.49576,-2.329085,0.010276,0.983234,0.118216,-2.518183,-25.15994,-23.14382,1001.114
13.379319668,0.3089498,-12.95784,-2.207018,0.002389887,0.9971464,0.1204493,-2.518183,-25.15994,-23.14382,1001.114
13.399503708,0.3089498,-13.25669,-2.084952,-0.006191518,0.9886968,0.1290532,-2.518183,-25.15994,-23.14382,1001.114
13.419687748,-0.3038028,-13.13715,-1.718753,0.007853291,0.9841815,0.1167785,-2.516539,-25.15839,-23.58295,1001.114
13.439870834,-0.9778305,-13.6153,-1.657719,-0.03255706,1.014756,0.1490711,-2.516539,-25.15839,-23.58295,1001.114
13.460054874,-0.610179,-13.43599,-1.779786,0.0356054,0.9618989,0.1576567,-3.243367,-25.89801,-22.70739,1001.114
13.480238914,-0.119977,-12.59923,-1.901852,0.001130152,1.0212,0.1360113,-3.243367,-25.89801,-22.70739,1001.118
13.500422954,0.002573525,-11.7027,-1.840819,0.01697965,0.9861888,0.1722758,-3.243367,-25.89801,-22.70739,1001.118
13.520606041,0.370225,-10.86594,-2.023919,0.02209674,1.002768,0.1205316,-3.262778,-25.15938,-22.70764,1001.12
13.540790081,-0.119977,-10.26825,-1.535653,-0.001746971,0.9799462,0.1386052,-3.262778,-25.15938,-22.70764,1001.12
13.560974121,-0.2425275,-9.551023,-1.413587,0.008187446,0.9961864,0.1282071,-2.873536,-25.90061,-22.26678,1001.121
13.581157684,-0.365078,-9.132642,-1.29152,0.01469132,0.976915,0.126843,-2.873536,-25.90061,-22.26678,1001.121
13.598818302,-0.119977,-8.893567,-1.47462,0.001458016,0.9940087,0.1422849,-2.873536,-25.90061,-22.26678,1001.117
13.619002342,0.06384878,-7.638422,-1.230487,0.007842869,0.9842892,0.1547344,-2.883006,-25.53107,-22.32964,1001.117
13.639186382,-0.119977,-6.980967,-1.169454,0.01840847,0.9886111,0.1256093,-2.883006,-25.53107,-22.32964,1001.119
13.659369469,-0.1812522,-6.562585,-0.8642877,0.01807274,0.9764758,0.1273159,-2.88465,-25.53262,-21.89051,1001.119
13.679553509,-0.365078,-6.443048,-0.8032544,-0.0151978,0.9752853,0.148751,-2.88465,-25.53262,-21.89051,1001.119
13.699737549,-0.1812522,-6.203973,-0.8642877,0.01275977,0.9766691,0.1487374,-2.88465,-25.53262,-21.89051,1001.119
13.719921589,-0.3038028,-6.562585,-0.7422212,-0.006278242,0.9951011,0.1671338,-2.502059,-25.90166,-22.2653,1001.119
13.740104675,-0.3038028,-6.861429,-1.047387,0.02035491,0.98621,0.1751907,-2.502059,-25.90166,-22.2653,1001.119
13.760288715,-0.3038028,-6.980967,-0.9253209,0.01634053,0.9993894,0.1594001,-3.245011,-25.89956,-22.26826,1001.123
13.780472279,-0.1812522,-6.861429,-1.169454,0.01894443,0.9833644,0.1668645,-3.245011,-25.89956,-22.26826,1001.123
13.800656319,0.125124,-7.160273,-1.169454,0.01846319,0.9834393,0.1585947,-3.245011,-25.89956,-22.26826,1001.123
13.820840359,0.06384878,-7.638422,-1.352553,0.005879833,0.9476117,0.1369809,-3.616252,-25.89828,-22.33247,1001.123
13.841023445,-0.2425275,-7.877497,-1.352553,-0.0005835295,1.003091,0.1517128,-3.616252,-25.89828,-22.33247,1001.117
13.861207485,-0.85528,-9.252179,-0.8032544,-0.04354035,1.004128,0.2272173,-2.886294,-25.53416,-21.45138,1001.117
13.878868103,-1.651858,-10.56709,-1.718753,-0.004177449,0.9802516,0.2018711,-2.886294,-25.53416,-21.45138,1001.121
13.899052143,-1.100381,-12.47969,-1.413587,-0.00289152,0.9535155,0.2125316,-2.886294,-25.53416,-21.45138,1001.121
13.919236183,-0.6714543,-12.12108,-1.901852,0.02140875,0.9790701,0.1638564,-3.248064,-25.90242,-21.45273,1001.12
13.939420223,-0.85528,-12.77854,-2.145985,-0.00343986,0.9596779,0.1766469,-3.248064,-25.90242,-21.45273,1001.12
13.959603310,-0.1812522,-13.37622,-2.390118,0.02413925,0.9927954,0.1519594,-2.866882,-26.27279,-21.45112,1001.12
13.979787350,-0.5489038,-13.7946,-2.207018,0.005820672,0.9524166,0.1409688,-2.866882,-26.27279,-21.45112,1001.12
13.999970913,-0.4263533,-13.91414,-2.207018,0.002557353,0.9828733,0.1430361,-3.609834,-26.27069,-21.45408,1001.12
14.020154953,-0.610179,-13.7946,-2.145985,0.01341147,1.002214,0.163353,-3.609834,-26.27069,-21.45408,1001.12
14.040338993,-0.610179,-13.91414,-2.207018,0.01833237,0.9939551,0.1729141,-3.609834,-26.27069,-21.45408,1001.12
14.060522079,-0.5489038,-13.73484,-2.268052,0.04839623,0.9809431,0.1619075,-3.629246,-25.53206,-21.45434,1001.12
14.080706120,-0.365078,-13.25669,-2.451151,0.03655574,1.002331,0.1861909,-3.629246,-25.53206,-21.45434,1001.12
14.100890160,-0.5489038,-13.13715,-2.207018,0.03195137,0.9844008,0.1795172,-3.249708,-25.90397,-21.0136,1001.12
14.121074200,-0.6714543,-13.01761,-1.901852,0.009867772,0.9757701,0.186191,-3.249708,-25.90397,-21.0136,1001.12
14.141257286,-1.100381,-13.55553,-1.901852,0.02125973,0.9513439,0.1744993,-3.249708,-25.90397,-21.0136,1001.12
14.158918381,-0.6714543,-13.67507,-2.145985,0.01141439,1.008186,0.1444972,-3.940453,-25.53273,-21.01644,1001.12
14.179102421,-1.100381,-13.7946,-2.145985,0.01199255,0.9996403,0.176442,-3.940453,-25.53273,-21.01644,1001.12
14.199285984,-1.039106,-14.21299,-2.023919,-0.02878464,0.902389,0.1502478,-4.685048,-25.53217,-20.58027,1001.12
14.219469547,-0.365078,-14.03368,-1.962885,0.003644192,0.9726438,0.1501309,-4.685048,-25.53217,-20.58027,1001.12
14.239653587,-0.3038028,-13.6153,-2.145985,0.0110546,0.9979398,0.1511072,-4.685048,-25.53217,-20.58027,1001.12
14.259837627,-0.4876285,-13.31645,-2.145985,0.004664551,1.00723,0.1819554,-3.633944,-25.53648,-20.19968,1001.12
14.280020714,-0.119977,-12.59923,-2.145985,0.02572981,0.9804717,0.1755559,-3.633944,-25.53648,-20.19968,1001.12
14.300204754,0.370225,-12.12108,-2.268052,0.0297807,0.9258175,0.12289,-3.92245,-26.27268,-20.63978,1001.118
14.320388794,-0.4876285,-11.28432,-1.657719,0.005244527,1.038481,0.207389,-3.92245,-26.27268,-20.63978,1001.118
14.340572834,-0.6714543,-11.52339,-1.901852,0.002922683,0.9519923,0.179405,-3.92245,-26.27268,-20.63978,1001.118
14.360755920,-0.5489038,-11.64293,-1.657719,-0.01444943,0.9923404,0.1889876,-3.627526,-25.90888,-19.32129,1001.118
14.380939960,0.4315003,-11.58316,-1.840819,0.005237974,1.000232,0.1555404,-3.627526,-25.90888,-19.32129,1001.118
14.401124000,0.2476745,-11.10501,-2.023919,0.05867585,1.047808,0.1773268,-4.667047,-26.27213,-20.20361,1001.118
14.421307564,0.370225,-10.7464,-1.535653,0.04870455,0.917338,0.07792845,-4.667047,-26.27213,-20.20361,1001.118
14.438968181,-0.365078,-10.14871,-1.596686,-0.01257206,0.9571878,0.1697988,-4.667047,-26.27213,-20.20361,1001.118
14.459152222,-0.610179,-10.02917,-1.657719,-0.01073808,1.044172,0.195847,-4.297214,-26.27472,-19.763,1001.122
14.479336262,-1.284207,-9.610792,-1.779786,0.05015874,0.9933927,0.2283271,-4.297214,-26.27472,-19.763,1001.122
14.499519348,-0.9778305,-9.551023,-0.9253209,0.03129241,0.9988712,0.185157,-4.670335,-26.27522,-19.32535,1001.122
14.519703388,-0.1812522,-9.072873,-1.230487,-0.03987245,0.9798636,0.2364635,-4.670335,-26.27522,-19.32535,1001.122
14.539887428,0.06384878,-9.431485,-1.596686,0.02239025,0.9369692,0.2087609,-3.61782,-26.27819,-19.32116,1001.122
14.560071468,-0.4876285,-8.056804,-1.047387,-0.04317855,1.01551,0.1549406,-3.61782,-26.27819,-19.32116,1001.122
14.580255031,-0.3038028,-6.980967,-0.9863541,0.008457516,1.051265,0.242185,-3.61782,-26.27819,-19.32116,1001.12
14.600438595,-1.222932,-6.921198,-0.8032544,-0.01654255,0.9652695,0.228355,-5.053161,-25.90639,-18.88783,1001.12
14.620622635,-0.4876285,-7.160273,-0.9863541,0.007947075,0.9348364,0.2067935,-5.053161,-25.90639,-18.88783,1001.122
14.640806198,-0.4263533,-8.534954,-1.230487,0.006893391,0.9826047,0.1765989,-5.051517,-25.90485,-19.32696,1001.122
14.660990238,-0.365078,-7.877497,-1.230487,0.003984042,0.9822108,0.2607749,-5.051517,-25.90485,-19.32696,1001.12
14.681173801,-0.4263533,-8.833798,-1.169454,-8.363025E-05,0.9997109,0.2489625,-5.051517,-25.90485,-19.32696,1001.12
14.698834896,-1.468033,-9.252179,-0.9253209,0.01353328,0.9513081,0.2153833,-5.04181,-26.27417,-19.32683,1001.12
14.719017982,0.9829776,-10.80617,-2.573218,-0.01445467,0.835263,0.1002395,-5.04181,-26.27417,-19.32683,1001.12
14.739202022,-1.039106,-11.04524,-1.352553,-0.008171051,0.8317178,0.22278,-4.655595,-26.95516,-18.50959,1001.12
14.779570103,0.06384878,-9.132642,-1.718753,0.001825664,1.001996,0.2168902,-4.655595,-26.95516,-18.50959,1001.122
14.799753666,0.9217024,-9.371716,-1.535653,-0.001690227,0.89565,0.1374234,-5.406634,-26.6453,-18.51265,1001.122
14.819937229,0.6153261,-9.551023,-1.29152,-0.01793506,1.002586,0.1278856,-5.406634,-26.6453,-18.51265,1001.118
14.840121269,0.8604271,-10.62686,-1.535653,-0.02174445,1.117714,0.1413612,-5.398545,-26.95306,-18.51254,1001.118
14.860304832,-0.6714543,-10.86594,-1.29152,-0.01480659,0.9823116,0.1737054,-5.398545,-26.95306,-18.51254,1001.116
14.880488873,-0.9165553,-10.26825,-1.47462,0.004203044,0.9654115,0.1962126,-5.398545,-26.95306,-18.51254,1001.116
14.900672436,0.9217024,-9.790098,-1.718753,0.03150832,1.062076,0.1148794,-5.42769,-25.90821,-18.07378,1001.116
14.920855999,0.125124,-9.252179,-1.840819,0.02021852,1.03882,0.0978917,-5.42769,-25.90821,-18.07378,1001.116
14.941040039,0.9829776,-9.252179,-2.512184,-0.0187713,1.112717,0.06340406,-5.799167,-25.90716,-18.07526,1001.116
14.961224079,-0.85528,-9.072873,-2.145985,0.02424776,0.9823747,0.2257141,-5.799167,-25.90716,-18.07526,1001.116
14.978884697,-0.365078,-8.833798,-1.169454,-0.01024804,0.963594,0.2112821,-5.799167,-25.90716,-18.07526,1001.115
14.999068737,-0.5489038,-7.578654,-1.169454,-0.01165354,1.040452,0.1787442,-5.419627,-26.27907,-17.63452,1001.115
15.019252300,-0.2425275,-7.817729,-0.9253209,-0.07171299,0.9425171,0.1438062,-5.419627,-26.27907,-17.63452,1001.115
15.039435864,-0.1812522,-7.220042,-1.596686,-0.0234745,1.020899,0.1783746,-5.409923,-26.64839,-17.63439,1001.115
15.059619904,0.002573525,-7.75796,-1.169454,-0.01647722,1.00159,0.1327296,-5.409923,-26.64839,-17.63439,1001.113
15.079803467,-0.3038028,-6.562585,-0.9253209,-0.03336204,0.9630719,0.08284676,-5.422681,-26.28194,-16.81899,1001.113
15.099987507,0.7378766,-6.622354,-1.169454,0.01173037,0.9829208,0.1031235,-5.422681,-26.28194,-16.81899,1001.113
15.120171547,0.125124,-5.905129,-1.535653,0.04799569,1.054377,0.1341662,-5.422681,-26.28194,-16.81899,1001.113
15.140354633,-0.119977,-5.964898,-1.29152,0.03232937,0.9545674,0.1103175,-5.7814,-26.64734,-17.63587,1001.113
15.160538673,0.4927756,-7.040735,-0.9253209,0.001171361,0.9394977,0.06870507,-5.7814,-26.64734,-17.63587,1001.113
15.180722714,0.4315003,-7.518885,-0.9253209,-0.02093477,0.9725283,0.07620346,-6.895825,-26.64418,-17.64031,1001.113
15.200906754,-0.610179,-9.013104,-0.8032544,-0.08386417,0.9509295,0.1079831,-6.895825,-26.64418,-17.64031,1001.113
15.221089840,-0.7327295,-8.833798,-1.10842,0.001594434,1.062278,0.1475286,-6.895825,-26.64418,-17.64031,1001.113
15.241273880,-0.6714543,-9.73033,-1.047387,-0.0002505152,1.015971,0.1237452,-6.163989,-26.27829,-17.26108,1001.113
15.258934498,-1.100381,-9.013104,-1.169454,0.02302668,1.005746,0.1147501,-6.163989,-26.27829,-17.26108,1001.113
15.279118538,-0.6714543,-9.371716,-1.10842,0.03883338,1.014599,0.1251205,-6.165633,-26.27984,-16.82195,1001.111
15.299302101,-0.2425275,-8.295879,-1.47462,0.02895408,1.033835,0.1250291,-6.165633,-26.27984,-16.82195,1001.111
15.319486141,-0.4876285,-8.71426,-1.230487,-0.01536585,0.9895101,0.1310291,-6.165633,-26.27984,-16.82195,1001.109
15.339670181,-0.2425275,-9.072873,-1.230487,-0.01976801,1.034623,0.1192771,-6.17393,-25.9092,-17.19848,1001.109
15.359853268,0.2476745,-8.833798,-1.352553,0.006782407,1.033436,0.08320727,-6.17393,-25.9092,-17.19848,1001.105
15.380037308,-0.2425275,-8.71426,-1.352553,-0.008326048,0.9659592,0.1222807,-5.792514,-26.27935,-17.2596,1001.105
15.400221348,0.06384878,-8.056804,-1.230487,0.003582267,1.017836,0.1369143,-5.792514,-26.27935,-17.2596,1001.105
15.420405388,-0.3038028,-7.75796,-1.29152,0.007501074,1.013238,0.1178407,-5.792514,-26.27935,-17.2596,1001.105
15.440588474,-0.7327295,-7.75796,-1.352553,0.01061544,0.9947063,0.1344999,-6.168921,-26.28293,-15.94369,1001.107
15.460772514,-0.2425275,-7.160273,-1.29152,0.01535446,1.001467,0.1438719,-6.168921,-26.28293,-15.94369,1001.107
15.480956554,0.2476745,-6.383279,-1.169454,0.006699615,0.9995505,0.1287625,-6.537108,-26.27879,-16.82343,1001.109
15.501140118,-0.1812522,-5.84536,-1.047387,-0.003526762,0.9680068,0.1184215,-6.537108,-26.27879,-16.82343,1001.109
15.518800735,-0.119977,-5.546516,-0.8032544,-0.02107689,0.9830794,0.1357761,-6.537108,-26.27879,-16.82343,1001.111
15.538984775,-0.3038028,-5.008597,-0.7422212,-0.002314438,0.9874361,0.1153981,-6.538753,-26.28033,-16.3843,1001.111
15.559168816,-0.2425275,-5.426979,-0.8032544,-0.01119483,1.003717,0.1215724,-6.538753,-26.28033,-16.3843,1001.107
15.579351902,-0.4263533,-5.546516,-0.9863541,0.001353505,1.003791,0.08408827,-6.911872,-26.28083,-15.94665,1001.107
15.599535942,-0.610179,-6.024666,-0.8642877,0.008600528,1.002112,0.1176189,-6.911872,-26.28083,-15.94665,1001.107
15.619719982,-0.119977,-5.426979,-0.8642877,0.02977552,1.00662,0.08556231,-6.911872,-26.28083,-15.94665,1001.107
15.639904022,-0.119977,-4.769523,-0.7422212,-0.01008124,0.9918206,0.1013853,-6.519315,-26.95587,-16.82319,1001.111
15.660087109,-0.4263533,-4.530447,-0.7422212,-0.0003851692,0.9874937,0.1124769,-6.519315,-26.95587,-16.82319,1001.111
15.680271149,-0.4263533,-4.530447,-0.6201548,-0.007065688,0.9806334,0.1590633,-6.919934,-25.90997,-16.38591,1001.112
15.700454712,-0.365078,-4.41091,-0.6201548,0.0002310035,0.9762738,0.1210125,-6.919934,-25.90997,-16.38591,1001.112
15.720638752,-0.1812522,-4.052298,-0.681188,0.02458731,0.9957956,0.1432595,-6.902167,-26.65014,-15.94652,1001.112
15.740822792,-0.4263533,-4.41091,-0.6201548,0.005515409,0.977598,0.1419542,-6.902167,-26.65014,-15.94652,1001.112
15.761005878,-0.119977,-4.41091,-0.681188,0.01688878,0.9941894,0.1471317,-6.902167,-26.65014,-15.94652,1001.106
15.781189918,0.002573525,-4.41091,-0.7422212,0.01169589,0.9849177,0.1459827,-6.550103,-25.91256,-15.9453,1001.106
15.798850536,-0.1812522,-4.769523,-0.5591215,-0.005601742,0.9791729,0.1619517,-6.550103,-25.91256,-15.9453,1001.112
15.819034576,-0.2425275,-5.008597,-0.7422212,0.01350415,0.9943631,0.1734158,-6.542041,-26.28342,-15.50604,1001.112
15.839218616,-0.119977,-5.964898,-0.9253209,0.02433682,0.9761634,0.1681738,-6.542041,-26.28342,-15.50604,1001.112
15.859402657,-0.4263533,-6.443048,-0.8642877,0.005087319,0.9723708,0.1798051,-6.542041,-26.28342,-15.50604,1001.112
15.879586220,-0.4263533,-6.921198,-0.8032544,0.008374946,0.979691,0.1794586,-6.911872,-26.28083,-15.94665,1001.112
15.899769783,-0.2425275,-7.638422,-1.047387,0.03454581,0.9695328,0.1680276,-6.911872,-26.28083,-15.94665,1001.112
15.919953346,-0.6714543,-8.116573,-0.9863541,0.004204387,0.9655225,0.1850233,-6.902167,-26.65014,-15.94652,1001.114
15.940137386,-0.4876285,-8.71426,-1.230487,0.02821404,0.9739454,0.2021853,-6.902167,-26.65014,-15.94652,1001.114
15.960321426,0.002573525,-10.44755,-1.596686,0.006538211,0.9727399,0.144776,-6.902167,-26.65014,-15.94652,1001.11
15.980504513,-0.3038028,-10.7464,-1.596686,0.03044025,0.9491031,0.2187209,-6.540397,-26.28188,-15.94517,1001.11
16.000688553,-0.6714543,-10.56709,-1.596686,0.02418914,0.9485483,0.1676275,-6.540397,-26.28188,-15.94517,1001.11
16.020872593,-0.365078,-10.56709,-1.47462,0.01684819,0.9966515,0.1919465,-6.876311,-27.69808,-15.50702,1001.11
16.041056633,-0.3038028,-10.32802,-1.29152,-0.009606088,0.951597,0.1516801,-6.876311,-27.69808,-15.50702,1001.112
16.061240196,-0.3038028,-10.68663,-1.535653,-0.01335786,0.982502,0.1566765,-6.876311,-27.69808,-15.50702,1001.112
16.078900814,-0.1812522,-11.04524,-1.596686,-0.004777095,0.9908985,0.153424,-7.206695,-26.9599,-15.13212,1001.11
16.099084854,-0.2425275,-11.22455,-1.657719,0.006876952,0.9841542,0.1668978,-7.206695,-26.9599,-15.13212,1001.11
16.119268417,-0.2425275,-11.16478,-1.535653,0.03044198,0.9898618,0.1640567,-6.900418,-26.96386,-14.25262,1001.112
16.139451981,-0.2425275,-11.40385,-1.47462,-0.008306949,0.9636596,0.1587292,-6.900418,-26.96386,-14.25262,1001.112
16.159636021,-0.4876285,-11.28432,-1.718753,0.007543171,0.9693155,0.1495727,-6.900418,-26.96386,-14.25262,1001.112
16.179820061,-0.4876285,-12.06131,-1.657719,-0.005399721,1.002554,0.1497629,-6.89713,-26.96077,-15.13088,1001.112
16.200003147,-0.6714543,-12.18085,-1.657719,-0.01043402,0.9802149,0.1473818,-6.89713,-26.96077,-15.13088,1001.11
16.220187187,-0.6714543,-12.77854,-1.718753,-0.02486908,0.9768141,0.1755578,-7.198634,-27.33076,-14.69286,1001.11
16.240371227,-0.6714543,-13.31645,-2.084952,-0.0423057,0.9828482,0.1761894,-7.198634,-27.33076,-14.69286,1001.11
16.260555267,-1.039106,-14.21299,-2.084952,-0.04410993,0.9717969,0.2129539,-6.881007,-27.70249,-14.25237,1001.11
16.280738830,-1.284207,-15.22905,-2.207018,-0.0296911,1.015441,0.230827,-6.881007,-27.70249,-14.25237,1001.11
16.300922394,-1.100381,-17.73934,-2.756317,-0.002585751,0.9689914,0.1670983,-6.881007,-27.70249,-14.25237,1001.11
16.321106434,-1.529308,-17.85888,-3.061483,0.003473545,0.9856843,0.2029406,-7.211627,-26.96453,-13.81473,1001.114
16.341289997,-1.345482,-18.75541,-2.695284,0.1168082,1.022079,0.4156463,-7.211627,-26.96453,-13.81473,1001.114
16.358950615,-1.529308,-18.15772,-2.695284,0.09582343,1.005181,0.2805581,-7.227777,-26.28591,-14.25409,1001.114
16.379134655,-1.100381,-17.56004,-1.901852,0.08616934,0.9655758,0.3021714,-7.227777,-26.28591,-14.25409,1001.114
16.399318695,-0.4263533,-16.72327,-2.634251,0.1147848,0.9553133,0.1583833,-7.227777,-26.28591,-14.25409,1001.114
16.419502735,-0.4263533,-16.00605,-2.023919,0.1147287,0.9593973,0.1861996,-7.19527,-27.70603,-12.99894,1001.114
16.439685821,0.125124,-15.46813,-2.512184,0.0741322,0.9659648,0.1961209,-7.19527,-27.70603,-12.99894,1001.114
16.459869861,0.002573525,-15.64744,-2.390118,-0.02299281,0.9812163,0.1741824,-7.563691,-27.70211,-13.81595,1001.114
16.480053902,0.125124,-15.94628,-2.634251,-0.06724313,1.009333,0.2531442,-7.563691,-27.70211,-13.81595,1001.114
16.500237465,-0.05870173,-16.84281,-2.634251,-0.05526791,0.9777535,0.1819466,-7.563691,-27.70211,-13.81595,1001.112
16.520421028,-0.9165553,-17.56004,-2.573218,-0.0403331,0.9787316,0.2033539,-7.93822,-27.70393,-13.0019,1001.112
16.540605068,-0.1812522,-18.09796,-3.061483,0.03052591,0.9812866,0.2470932,-7.93822,-27.70393,-13.0019,1001.112
16.560788631,-0.4263533,-18.51634,-2.634251,0.04508862,0.9342644,0.2222984,-7.584512,-26.96481,-13.43981,1001.112
16.580972671,-0.3038028,-18.45657,-3.061483,0.02240282,0.9757147,0.2105008,-7.584512,-26.96481,-13.43981,1001.116
16.601156711,-0.7327295,-19.83125,-3.122517,0.01795414,0.9454477,0.1777936,-7.584512,-26.96481,-13.43981,1001.116
16.618817329,-0.7327295,-20.13009,-2.939417,-0.02106887,0.941188,0.2069618,-7.578095,-27.33721,-12.56142,1001.116
16.639001369,-0.2425275,-21.2657,-3.854915,-0.01062924,0.9564262,0.1517772,-7.578095,-27.33721,-12.56142,1001.116
16.659184456,-0.4263533,-23.11853,-3.732849,0.04617086,0.8849787,0.2101299,-7.95098,-27.33748,-12.1865,1001.115
16.679368496,-0.4263533,-23.05876,-3.610782,0.003520138,0.9421338,0.1972127,-7.95098,-27.33748,-12.1865,1001.115
16.699552536,-0.3038028,-24.07483,-3.732849,0.01019638,0.9873164,0.2438363,-7.95098,-27.33748,-12.1865,1001.116
16.719736099,-0.7327295,-24.67252,-3.732849,0.003493382,1.024061,0.1929952,-7.199967,-27.71045,-11.74428,1001.116
16.739920139,-0.4263533,-24.85183,-4.099049,0.006748059,0.9948294,0.165163,-7.199967,-27.71045,-11.74428,1001.116
16.760103702,-0.365078,-25.32998,-3.732849,-0.04040667,1.025869,0.140544,-7.573087,-27.71094,-11.30663,1001.116
16.780287266,-0.7940047,-26.10697,-3.18355,-0.03289904,0.962458,0.1942623,-7.573087,-27.71094,-11.30663,1001.115
16.800471306,-0.85528,-26.88396,-4.221115,-0.02071506,0.9519088,0.2013344,-8.307975,-28.0797,-10.87033,1001.115
16.820655346,-0.85528,-26.46558,-4.160081,-0.004599525,0.9755216,0.1896134,-8.307975,-28.0797,-10.87033,1001.113
16.840838432,-0.9165553,-25.15067,-4.038015,0.0313122,0.958922,0.109432,-8.307975,-28.0797,-10.87033,1001.113
16.861022472,-0.2425275,-22.64038,-3.061483,-0.004003813,1.007104,0.1328204,-8.690803,-27.71088,-10.43281,1001.113
16.881206512,-0.1812522,-20.07032,-3.305616,-0.007406225,1.008716,0.1605927,-8.690803,-27.71088,-10.43281,1001.113
16.898867130,-0.610179,-19.05426,-2.451151,-0.01892301,0.964862,0.119355,-8.68415,-28.08306,-9.617152,1001.117
16.919051170,-0.365078,-17.50027,-2.573218,-0.009419329,1.016271,0.1286305,-8.68415,-28.08306,-9.617152,1001.117
16.939234734,-0.2425275,-16.54397,-2.329085,-0.03762222,0.9163916,0.09312063,-8.68415,-28.08306,-9.617152,1001.115
16.959418774,-0.6714543,-16.00605,-2.268052,-0.01755322,0.9314851,0.1157729,-7.950904,-27.71585,-9.614324,1001.115
16.979602337,-0.1812522,-16.42443,-2.329085,0.01210196,0.9922029,0.09600783,-7.950904,-27.71585,-9.614324,1001.117
16.999785900,-0.7940047,-16.12559,-2.023919,-0.01760045,0.9749824,0.1268522,-8.69691,-27.71661,-8.801753,1001.117
17.019969940,-1.651858,-15.88651,-1.779786,-0.01909398,0.9788454,0.1259576,-8.69691,-27.71661,-8.801753,1001.115
17.040153980,-0.3038028,-15.76697,-1.596686,-0.01381131,1.061257,0.08086859,-8.69691,-27.71661,-8.801753,1001.115
17.060338020,-0.9778305,-15.70721,-1.657719,-0.01023741,1.004119,0.1313107,-7.950904,-27.71585,-9.614324,1001.113
17.080521107,-0.7327295,-15.76697,-1.901852,0.03307067,0.9729775,0.1116539,-7.950904,-27.71585,-9.614324,1001.113
17.100705147,-0.7940047,-15.40836,-1.901852,0.02892291,0.9964603,0.1315882,-8.708259,-27.34885,-8.362752,1001.112
17.120889187,-0.7940047,-14.5716,-1.962885,0.03074231,0.9652418,0.155297,-8.708259,-27.34885,-8.362752,1001.112
17.141072750,-0.2425275,-13.7946,-2.023919,0.01188505,0.9695295,0.1344863,-8.708259,-27.34885,-8.362752,1001.11
17.161256313,-0.05870173,-13.7946,-1.901852,-0.01653283,1.045364,0.1647376,-8.700198,-27.7197,-7.923493,1001.11
17.178917408,-0.4263533,-13.55553,-2.207018,-0.03470575,0.9937568,0.1136244,-8.700198,-27.7197,-7.923493,1001.108
17.199100971,-0.119977,-14.03368,-2.023919,0.0001192635,1.025104,0.1317108,-8.700198,-27.7197,-7.923493,1001.108
17.219284535,-0.4263533,-13.43599,-1.901852,-0.01696264,0.9626426,0.1017911,-8.700198,-27.7197,-7.923493,1001.108
17.239468575,-0.4876285,-13.85437,-2.023919,0.0262865,0.9749997,0.1418723,-8.700198,-27.7197,-7.923493,1001.108
17.259652615,0.1863993,-13.01761,-1.718753,0.002451792,0.9925684,0.09359629,-8.320659,-28.09161,-7.482756,1001.108
17.279836654,-0.5489038,-13.13715,-1.47462,-0.00196038,0.9575624,0.1478942,-8.320659,-28.09161,-7.482756,1001.108
17.300019741,-0.85528,-12.89807,-1.779786,-0.008403798,1.011782,0.1431377,-9.063611,-28.08951,-7.485713,1001.108
17.320203781,-0.2425275,-12.659,-1.413587,0.008396151,1.019151,0.1091979,-9.063611,-28.08951,-7.485713,1001.108
17.340387821,-0.05870173,-11.46362,-1.047387,0.007591126,1.007109,0.05203006,-9.063611,-28.08951,-7.485713,1001.108
17.360571384,0.06384878,-11.22455,-1.047387,-0.01922477,0.990333,0.09115094,-8.322068,-28.09294,-7.106358,1001.108
17.380754948,-0.1812522,-11.94177,-1.352553,0.01809835,1.015331,0.06920791,-8.322068,-28.09294,-7.106358,1001.112
17.400938511,-0.6714543,-12.12108,-1.413587,0.01637089,0.9980217,0.1019558,-7.93447,-28.83571,-6.226362,1001.112
17.421122551,-0.119977,-11.52339,-1.047387,0.0391941,0.9852757,0.1021566,-7.93447,-28.83571,-6.226362,1001.11
17.438783169,0.125124,-10.86594,-0.9863541,0.00470619,1.004855,0.1283838,-7.93447,-28.83571,-6.226362,1001.11
17.458967209,-0.119977,-10.62686,-0.9253209,0.02215432,0.9978324,0.129679,-9.066665,-28.09238,-6.670186,1001.11
17.479151249,-0.2425275,-9.909636,-1.169454,0.02836768,1.002053,0.1531095,-9.066665,-28.09238,-6.670186,1001.11
17.499335289,-0.6714543,-9.551023,-1.29152,0.004040893,0.9801238,0.1293551,-8.696834,-28.09498,-6.229577,1001.11
17.519518375,-0.3038028,-9.371716,-0.9253209,0.009244529,0.9883448,0.1387553,-8.696834,-28.09498,-6.229577,1001.108
17.539702415,0.06384878,-8.654491,-0.6201548,-0.002940569,0.9988024,0.1409265,-8.335063,-27.72672,-6.228227,1001.108
17.559886455,0.1863993,-8.056804,-0.2539555,0.005962948,0.9805548,0.1376328,-8.335063,-27.72672,-6.228227,1001.11
17.580070019,0.1863993,-7.339579,-0.1929222,-0.01428576,0.9796926,0.1454308,-8.335063,-27.72672,-6.228227,1001.11
17.600254059,-0.1812522,-6.443048,-0.07085582,0.006491665,0.9766485,0.1414474,-9.459195,-27.35425,-6.232791,1001.11
17.620437145,-0.365078,-5.84536,-0.5591215,0.02699565,0.9955997,0.1666083,-9.459195,-27.35425,-6.232791,1001.11
17.640621185,-0.7940047,-6.203973,-0.4980884,0.03994125,1.002229,0.1526095,-8.327001,-28.09757,-5.788968,1001.11
17.660805225,0.002573525,-5.486748,-0.3149887,0.03284954,0.9905701,0.1450903,-8.327001,-28.09757,-5.788968,1001.11
17.680989265,0.370225,-5.128135,-0.1929222,0.01655629,0.9813527,0.1707209,-8.327001,-28.09757,-5.788968,1001.108
17.701173305,-0.3038028,-5.187904,-0.6201548,-0.001503905,0.9593187,0.1669052,-8.690417,-28.46738,-5.351188,1001.108
17.718833923,-0.85528,-5.666054,-0.9253209,0.003113197,0.9763619,0.1652894,-8.690417,-28.46738,-5.351188,1001.108
17.739017487,-0.5489038,-6.024666,-0.7422212,0.021427,0.9776701,0.1584762,-8.696834,-28.09498,-6.229577,1001.108
17.759201050,0.002573525,-5.725822,-0.8032544,0.03527363,0.9887667,0.183978,-8.696834,-28.09498,-6.229577,1001.107
17.779384613,0.1863993,-5.785592,-0.8642877,0.01740149,0.9908995,0.1864794,-8.696834,-28.09498,-6.229577,1001.107
17.799568653,-0.2425275,-5.905129,-0.8642877,0.003627723,0.9732215,0.1895558,-8.31894,-28.46843,-5.349709,1001.107
17.819752693,-0.3038028,-5.666054,-0.6201548,-0.002370444,0.9905626,0.190881,-8.31894,-28.46843,-5.349709,1001.107
17.839935780,-0.1812522,-5.905129,-0.5591215,0.003851644,0.9945353,0.1904639,-8.691825,-28.46871,-4.974791,1001.105
17.860119820,0.4315003,-6.084435,-0.4980884,0.01592493,0.9932563,0.1909075,-8.691825,-28.46871,-4.974791,1001.105
17.880303860,0.002573525,-6.084435,-0.3760219,0.01162327,0.9895793,0.213224,-8.691825,-28.46871,-4.974791,1001.109
17.900487900,0.3089498,-5.964898,-0.1929222,0.005762838,0.9960073,0.1914634,-8.310641,-28.83907,-4.973183,1001.109
17.920671940,-0.3038028,-6.263741,-0.681188,0.02629716,0.9729722,0.1997359,-8.310641,-28.83907,-4.973183,1001.107
17.940855026,-0.610179,-7.160273,-1.10842,0.04908841,0.9634027,0.1727508,-9.0633,-28.46766,-4.976269,1001.107
17.961039066,-0.4876285,-7.638422,-1.535653,0.06379876,0.9836374,0.1575589,-9.0633,-28.46766,-4.976269,1001.107
17.981222630,-0.4263533,-7.578654,-2.145985,0.06793975,0.9595945,0.1940576,-8.690417,-28.46738,-5.351188,1001.107
17.998883247,0.002573525,-7.698191,-1.10842,0.001364137,1.000791,0.191078,-8.690417,-28.46738,-5.351188,1001.107
18.019067287,0.1863993,-8.116573,0.05121062,-0.02239582,0.9713193,0.195882,-8.690417,-28.46738,-5.351188,1001.107
18.039251328,-0.119977,-8.176342,-0.8642877,-0.03883911,0.9749072,0.2003565,-8.691825,-28.46871,-4.974791,1001.101
18.059435368,0.002573525,-9.551023,-1.29152,-0.00736185,0.9649823,0.1733515,-8.691825,-28.46871,-4.974791,1001.101
18.079618454,-0.4876285,-9.909636,-1.779786,0.08367526,0.974197,0.2108674,-8.693469,-28.47025,-4.53566,1001.101
18.099802494,-0.05870173,-9.252179,-2.084952,0.09096698,0.9694271,0.2141685,-8.693469,-28.47025,-4.53566,1001.101
18.119986534,0.002573525,-8.594723,-0.8032544,0.01677806,0.9222273,0.2211286,-8.693469,-28.47025,-4.53566,1001.101
18.140170574,-0.5489038,-8.71426,-1.596686,-0.003834604,0.9513901,0.230008,-8.703174,-28.10094,-4.535789,1001.101
18.160353661,-1.345482,-9.013104,0.2343103,-0.01247704,0.9495298,0.160402,-8.703174,-28.10094,-4.535789,1001.099
18.180537701,-0.3038028,-8.893567,-0.07085582,-0.09276327,1.00628,0.2297651,-8.323636,-28.47285,-4.095052,1001.099
18.200721264,0.06384878,-9.491254,-1.29152,0.003901273,0.9512358,0.1594385,-8.323636,-28.47285,-4.095052,1001.099
18.220905304,-0.7327295,-8.71426,-1.718753,0.09250236,0.9622365,0.2086714,-8.323636,-28.47285,-4.095052,1001.099
18.241089344,2.331033,-8.116573,3.224938,-0.117794,0.9612692,0.2848685,-8.693469,-28.47025,-4.53566,1001.101
18.261272430,0.370225,-6.861429,1.271875,-0.01059626,0.8740433,0.1530662,-8.693469,-28.47025,-4.53566,1001.101
18.278934002,-0.4876285,-6.682123,-0.1929222,0.06770745,0.9385575,0.2140782,-9.791772,-29.20882,-3.661579,1001.103
18.299117088,-2.264611,-6.144204,-1.413587,0.08985221,0.9019338,0.2269453,-9.791772,-29.20882,-3.661579,1001.103
18.319301128,-0.7940047,-6.980967,-0.8642877,0.07348706,0.9786683,0.2333539,-9.791772,-29.20882,-3.661579,1001.103
18.339485168,-0.365078,-6.203973,-1.413587,0.1032751,1.069658,0.1416863,-9.056882,-28.84006,-4.09788,1001.103
18.359668732,0.4927756,-6.084435,-1.718753,-0.03671704,0.9192622,0.1958459,-9.056882,-28.84006,-4.09788,1001.105
18.379852772,-0.4876285,-6.203973,-1.230487,0.04964058,1.076494,0.2027237,-9.056882,-28.84006,-4.09788,1001.105
18.400036335,-0.1812522,-6.502817,-1.230487,-0.07420714,0.9482228,0.1998802,-9.056882,-28.84006,-4.09788,1001.105
18.420219898,-0.2425275,-6.383279,-1.10842,0.0191516,1.284693,0.1723414,-9.056882,-28.84006,-4.09788,1001.105
18.440403938,1.657005,-6.203973,0.4174099,-0.1383441,0.9472323,0.2038475,-9.408946,-29.57764,-4.099102,1001.105
18.460587978,0.4315003,-6.682123,0.2953435,0.03228145,0.9573931,0.1673041,-9.408946,-29.57764,-4.099102,1001.105
18.480771065,-0.05870173,-6.443048,-3.061483,0.0693845,0.91981,0.2015401,-8.687051,-28.84266,-3.657272,1001.108
18.500955105,-0.119977,-5.36721,-2.207018,0.1560337,1.211252,0.2582725,-8.687051,-28.84266,-3.657272,1001.108
18.521139145,0.8604271,-4.231604,-1.962885,-0.008370256,1.088029,0.1743285,-9.430001,-28.84055,-3.660229,1001.107
18.538799763,0.06384878,-4.470679,-1.718753,-0.0441769,0.9372802,0.2244355,-9.430001,-28.84055,-3.660229,1001.107
18.558983803,-0.119977,-6.084435,-2.817351,0.02596041,1.001369,0.1696435,-9.430001,-28.84055,-3.660229,1001.107
18.579167366,-0.4876285,-6.741891,-3.976982,0.01304125,0.9920756,0.2079189,-9.430001,-28.84055,-3.660229,1001.107
18.599351406,3.066336,-6.562585,-0.4980884,-0.02317548,0.91688,0.1631776,-9.430001,-28.84055,-3.660229,1001.107
18.619534969,-0.4263533,-6.383279,-0.681188,0.02038962,0.9426466,0.2195811,-8.316983,-28.84503,-3.279396,1001.107
18.639718532,0.4315003,-7.27981,-0.8032544,-0.06361853,0.9902153,0.1831786,-8.316983,-28.84503,-3.279396,1001.107
18.659902573,-0.9165553,-7.877497,-0.8642877,-0.01338289,0.9436952,0.2099196,-8.316983,-28.84503,-3.279396,1001.112
18.680086613,-1.100381,-7.638422,-1.29152,0.02830595,0.9263849,0.2100025,-8.71116,-28.10844,-2.402871,1001.112
18.700270653,-0.4876285,-7.518885,-0.6201548,0.03903242,0.9178272,0.1606721,-8.71116,-28.10844,-2.402871,1001.112
18.720453739,-0.119977,-7.27981,-0.4370551,0.02057707,1.007379,0.1906936,-9.051873,-29.21379,-2.843094,1001.112
18.740637779,0.6153261,-7.877497,-0.4370551,0.001708615,0.9740039,0.1078276,-9.051873,-29.21379,-2.843094,1001.095
18.760821819,0.06384878,-8.056804,-0.131889,-0.003409834,0.9979278,0.1306916,-9.051873,-29.21379,-2.843094,1001.095
18.781005382,-0.1812522,-7.75796,-0.4370551,0.001218911,0.9733788,0.170099,-9.069642,-28.47361,-3.282481,1001.099
18.801188946,-0.1812522,-6.443048,-0.4980884,0.05813059,0.9729939,0.1962835,-9.069642,-28.47361,-3.282481,1001.099
18.818850040,0.5540509,-4.649985,-0.131889,0.01402124,0.9914351,0.1762766,-9.050229,-29.21224,-3.282224,1001.099
18.839034080,-0.610179,-3.633916,-0.07085582,0.0252477,1.020121,0.1831535,-9.050229,-29.21224,-3.282224,1001.099
18.859217167,-0.9165553,-2.558079,-0.4370551,-0.004847864,1.034389,0.2627937,-9.050229,-29.21224,-3.282224,1001.099
18.879401207,-0.85528,-1.781085,-0.4980884,0.04354601,0.9427955,0.1903548,-9.423348,-29.21274,-2.844573,1001.099
18.899585247,-0.6714543,-1.601779,0.1122438,-0.008225391,1.075766,0.1896564,-9.423348,-29.21274,-2.844573,1001.099
18.919769287,0.1863993,-1.781085,0.2953435,-0.01447791,1.075095,0.1502388,-9.814239,-28.47306,-2.846309,1001.099
18.939952850,0.2476745,-1.54201,0.1732771,-0.002401572,0.9938066,0.1568842,-9.814239,-28.47306,-2.846309,1001.087
18.960136414,0.4315003,-1.302935,0.2953435,0.01813615,0.9323767,0.07924414,-9.814239,-28.47306,-2.846309,1001.087
18.980320454,-0.610179,-1.183397,0.4784431,0.05732398,0.960821,0.152251,-9.051873,-29.21379,-2.843094,1001.087
19.000504017,-0.2425275,-1.123629,0.3563767,0.02791228,0.9994164,0.1739812,-9.051873,-29.21379,-2.843094,1001.087
19.020688057,-0.4876285,-1.661547,0.2953435,0.02358844,0.9591084,0.1279373,-9.050229,-29.21224,-3.282224,1001.089
19.040871620,-0.365078,-2.139698,-0.009822596,0.01283085,0.97091,0.1432708,-9.050229,-29.21224,-3.282224,1001.089
19.061055183,-0.119977,-3.753454,-0.1929222,-0.01052878,0.988864,0.1057067,-9.050229,-29.21224,-3.282224,1001.093
19.081239223,0.06384878,-4.291373,-0.009822596,0.01155882,0.9968559,0.114591,-8.691749,-28.84707,-2.402614,1001.093
19.098899841,0.1863993,-4.41091,-0.1929222,0.04057175,0.9515786,0.08202418,-8.691749,-28.84707,-2.402614,1001.093
19.119083881,0.125124,-5.187904,-0.4980884,0.02140654,1.020472,0.09314756,-9.415288,-29.5836,-2.405314,1001.093
19.139267921,-0.1812522,-5.905129,-0.4980884,0.0210711,1.008361,0.09242176,-9.415288,-29.5836,-2.405314,1001.091
19.159451485,-0.3038028,-5.964898,-0.8032544,0.02838896,1.000904,0.1224318,-9.415288,-29.5836,-2.405314,1001.091
19.179635048,-0.5489038,-6.383279,-1.230487,0.04683688,0.9513531,0.1141252,-8.316983,-28.84503,-3.279396,1001.091
19.199819088,0.06384878,-6.622354,-0.9863541,0.01085252,0.9764925,0.06601693,-8.316983,-28.84503,-3.279396,1001.091
19.220002651,-0.7327295,-6.622354,-1.596686,0.03475557,0.914263,0.07399538,-9.434699,-28.84497,-2.405571,1001.091
19.240186691,-0.610179,-6.502817,-1.718753,0.05955338,0.976858,0.1019601,-9.434699,-28.84497,-2.405571,1001.091
19.260370731,-0.119977,-6.383279,-1.596686,0.008530592,1.008935,0.06471607,-9.06158,-28.84447,-2.843223,1001.091
19.280553818,0.002573525,-4.470679,-0.3760219,-0.02619494,1.207205,0.1008058,-9.06158,-28.84447,-2.843223,1001.091
19.300737858,-1.468033,-4.291373,-0.3149887,0.02843045,0.8399324,0.03555296,-9.06158,-28.84447,-2.843223,1001.095
19.320921898,0.6153261,-4.709754,-1.47462,0.01707401,1.178645,0.1138015,-8.673982,-29.58724,-1.963227,1001.095
19.341105938,1.47318,-3.93276,-0.2539555,-0.01821371,0.9883826,-0.003773564,-8.673982,-29.58724,-1.963227,1001.089
19.361289024,1.044253,-2.49831,-1.047387,0.02773462,1.017695,-0.008126751,-9.035724,-29.89241,-2.403728,1001.089
19.378950119,-0.365078,-2.199466,-0.2539555,0.03201098,1.020248,0.1315679,-9.035724,-29.89241,-2.403728,1001.093
19.399133682,-0.4876285,-1.004091,-0.5591215,0.04288155,0.9993647,0.1038898,-9.035724,-29.89241,-2.403728,1001.093
19.419317722,0.2476745,-1.302935,-0.3149887,0.0439835,1.14509,0.2152811,-9.053517,-29.21533,-2.403964,1001.094
19.439501285,2.208483,-0.6454786,-0.9863541,0.04745995,1.021935,-0.01537058,-9.053517,-29.21533,-2.403964,1001.094
19.459685325,-0.7940047,-0.9443224,0.2343103,-0.02381376,0.929181,0.1921306,-8.682042,-29.21638,-2.402485,1001.098
19.479869366,-1.590583,0.01197769,0.2343103,-0.01637929,0.9506488,0.2859692,-8.682042,-29.21638,-2.402485,1001.098
19.500052452,0.8604271,-1.004091,0.4784431,0.02440529,1.047541,0.2995051,-8.682042,-29.21638,-2.402485,1001.098
19.520236492,0.6766014,0.1315152,-0.1929222,0.03440489,0.9811524,0.1687444,-8.682042,-29.21638,-2.402485,1001.098
19.540420532,0.5540509,-0.3466348,-0.009822596,0.03309733,0.9703336,0.1339845,-8.682042,-29.21638,-2.402485,1001.093
19.560604572,1.902106,0.1315152,-0.5591215,0.01997183,1.061087,0.001988593,-9.051873,-29.21379,-2.843094,1001.093
19.580788135,0.9217024,0.01197769,0.05121062,-0.004690252,1.104411,0.09144102,-9.051873,-29.21379,-2.843094,1001.093
19.600971699,1.166803,1.745272,-0.3149887,0.05389725,1.207023,-0.005391231,-9.051873,-29.21379,-2.843094,1001.093
19.621155739,-3.122464,1.446428,0.5394764,-0.006361924,0.6816816,0.2572751,-8.664248,-29.89346,-2.40225,1001.093
19.638816357,-2.264611,1.32689,0.6005096,0.005769756,1.071992,0.3467287,-8.664248,-29.89346,-2.40225,1001.093
19.658999920,-1.958235,-0.8845536,0.2343103,0.01762233,0.9278188,0.440202,-8.690104,-28.84552,-2.841744,1001.093
19.679183960,3.985465,-1.482241,-0.681188,-0.005766817,0.7538296,0.1652775,-8.690104,-28.84552,-2.841744,1001.093
19.699368000,2.75996,0.4901277,-0.131889,-0.02147721,0.9791781,-0.00881681,-8.690104,-28.84552,-2.841744,1001.093
19.719552040,0.6153261,1.565965,0.1732771,0.0385452,1.280038,-0.01316879,-8.673982,-29.58724,-1.963227,1001.093
19.739735126,-0.2425275,1.745272,0.2343103,0.04295943,0.9931985,0.09062977,-8.673982,-29.58724,-1.963227,1001.093
19.759919167,-2.877363,0.7292027,0.7836093,-0.03663683,0.8697643,0.3500873,-9.055161,-29.21688,-1.964834,1001.089
19.780103207,0.4315003,-0.1075598,0.2343103,0.02616996,0.9818482,0.2816584,-9.055161,-29.21688,-1.964834,1001.089
19.800286770,2.208483,0.3705902,-0.131889,-0.0326395,1.024424,0.004746316,-9.053517,-29.21533,-2.403964,1001.087
19.820470810,0.9829776,0.3705902,-0.131889,0.02197476,1.093306,0.07853083,-9.053517,-29.21533,-2.403964,1001.087
19.840654373,-0.2425275,0.7889715,-0.07085582,0.02901087,1.149711,0.06893195,-9.053517,-29.21533,-2.403964,1001.091
19.860837936,-1.774409,0.669434,-0.009822596,0.04630534,0.9937023,0.1913583,-8.680398,-29.21484,-2.841615,1001.091
19.881021976,1.289354,1.984347,-0.2539555,0.08971927,0.8349213,0.1438727,-8.680398,-29.21484,-2.841615,1001.095
19.901206017,2.453584,3.179722,1.577041,0.004896989,0.9876624,0.2010313,-9.407199,-29.89136,-2.405207,1001.095
19.918866634,0.1863993,3.359028,0.722576,-0.05036487,0.8916349,0.1763423,-9.407199,-29.89136,-2.405207,1001.097
19.939050674,0.5540509,5.331397,0.722576,0.02149086,0.9722844,0.1642085,-9.407199,-29.89136,-2.405207,1001.097
19.959234238,0.4315003,5.630241,1.760141,-0.01707915,0.9704631,0.1924511,-9.042169,-29.5831,-2.842965,1001.097
19.979417801,-0.5489038,6.227928,0.7836093,0.02347199,0.9669336,0.2181109,-9.042169,-29.5831,-2.842965,1001.097
19.999601841,-0.4263533,5.570472,1.088775,0.05855665,1.01576,0.2817954,-8.682042,-29.21638,-2.402485,1001.098
20.019785404,0.7378766,5.21186,0.5394764,0.04399589,0.9855919,0.1751438,-8.682042,-29.21638,-2.402485,1001.098
20.039969444,-0.3038028,5.152091,0.8446425,0.02342332,0.9696965,0.2814219,-8.682042,-29.21638,-2.402485,1001.102
20.060152531,-1.345482,5.331397,0.9667089,0.02245133,1.010645,0.2549849,-9.050229,-29.21224,-3.282224,1001.102
20.080336571,-0.1812522,3.777409,0.4784431,0.0192115,1.00049,0.1993178,-9.050229,-29.21224,-3.282224,1001.104
20.100520611,-0.3038028,3.179722,0.3563767,0.01199014,1.038117,0.2540842,-9.06158,-28.84447,-2.843223,1001.104
20.120704651,-1.039106,2.462497,-0.2539555,0.04502803,0.9399204,0.1893226,-9.06158,-28.84447,-2.843223,1001.102
20.140888691,1.166803,1.625734,0.5394764,0.08277148,0.8476572,0.3149269,-9.06158,-28.84447,-2.843223,1001.102
20.161071777,1.289354,2.342959,0.1732771,0.004110347,0.8156476,0.1027436,-9.423348,-29.21274,-2.844573,1001.106
20.181255817,0.6766014,3.598103,-0.131889,0.03783631,1.136643,0.1294837,-9.423348,-29.21274,-2.844573,1001.106
20.198916435,0.7991518,3.23949,-0.07085582,0.03853743,1.279395,0.05153455,-10.17601,-28.84132,-2.847659,1001.108
20.219100475,-0.5489038,3.359028,0.1122438,0.01365039,1.142737,0.114069,-10.17601,-28.84132,-2.847659,1001.108
20.239284039,-3.30629,3.000415,0.6005096,0.07160103,0.9734599,0.3159733,-10.17601,-28.84132,-2.847659,1001.106
20.259468079,-0.5489038,1.207353,0.3563767,0.007572198,0.8440514,0.3217781,-9.423348,-29.21274,-2.844573,1001.106
20.279652119,-0.5489038,2.462497,-0.07085582,0.0357748,0.8259389,0.2848842,-9.423348,-29.21274,-2.844573,1001.108
20.299835205,0.002573525,2.223422,0.05121062,0.001764962,0.8074744,0.2393161,-9.03408,-29.89087,-2.842858,1001.108
20.320019245,0.4927756,2.342959,0.7836093,0.02629727,0.8530747,0.2216923,-9.03408,-29.89087,-2.842858,1001.112
20.340203285,0.5540509,4.375097,0.9056757,0.02570783,1.143056,0.09994662,-9.032435,-29.88932,-3.281988,1001.112
20.360387325,-1.529308,2.462497,-0.009822596,0.02943264,0.9532774,0.1871769,-9.032435,-29.88932,-3.281988,1001.11
20.380570412,1.840831,3.060184,0.1732771,-0.0325169,1.606947,0.2376721,-9.032435,-29.88932,-3.281988,1001.11
20.400754452,0.9217024,0.8487403,0.9667089,0.003052734,1.019735,0.2376762,-9.410356,-29.57896,-3.722704,1001.11
20.420938492,0.8604271,0.669434,0.2343103,0.05486202,0.9227557,0.2736345,-9.410356,-29.57896,-3.722704,1001.11
20.441122055,0.1863993,0.01197769,0.05121062,0.01299556,0.9167634,0.1801527,-9.059936,-28.84293,-3.282353,1001.11
20.458782673,-0.4876285,-0.2270973,0.1122438,-0.008633189,0.8294932,0.2509587,-9.059936,-28.84293,-3.282353,1001.11
20.478966713,-0.2425275,-0.4064036,-0.8032544,0.03217656,0.9700522,-0.0343787,-9.059936,-28.84293,-3.282353,1001.108
20.499150753,0.7378766,-2.139698,-0.009822596,-0.01111723,1.111617,0.3811122,-9.431411,-28.84188,-3.283831,1001.108
20.519334793,1.59573,-2.797154,-1.10842,0.04551818,0.9792589,0.1808553,-9.431411,-28.84188,-3.283831,1001.108
20.539517879,-0.1812522,-4.649985,-0.8642877,-0.03447998,0.9339927,0.1795902,-9.058291,-28.84138,-3.721483,1001.108
20.559701919,-0.9165553,-3.872992,-1.047387,0.001570875,0.8650099,0.1538427,-9.058291,-28.84138,-3.721483,1001.107
20.579885960,0.1863993,-3.813223,-0.5591215,0.0154561,1.071709,0.1944072,-9.058291,-28.84138,-3.721483,1001.107
20.600069523,0.370225,-3.693685,-0.6201548,0.00625037,0.956807,0.1386221,-9.421704,-29.21119,-3.283703,1001.105
20.620253086,-0.5489038,-4.470679,-0.4980884,0.04717704,1.040238,0.2394769,-9.421704,-29.21119,-3.283703,1001.105
20.640436649,0.4315003,-3.872992,-0.4370551,0.01368793,1.058791,0.1751772,-9.793181,-29.21014,-3.285182,1001.105
20.660620689,-0.3038028,-4.112066,-0.4370551,0.01578648,0.9644648,0.2112611,-9.793181,-29.21014,-3.285182,1001.105
20.680804729,-0.2425275,-3.693685,-0.3760219,0.01220043,0.9809518,0.2534391,-9.793181,-29.21014,-3.285182,1001.107
20.700988769,0.002573525,-3.275304,-0.5591215,0.02466616,0.9084791,0.2023546,-9.051873,-29.21379,-2.843094,1001.107
20.721171856,0.4927756,-2.558079,-0.2539555,0.03610558,1.038803,0.2209745,-9.051873,-29.21379,-2.843094,1001.107
20.738833427,-0.2425275,-2.02016,-0.131889,0.03638249,1.016126,0.2117667,-8.669049,-29.58261,-3.280617,1001.107
20.759016514,0.002573525,-2.199466,-0.4980884,0.02999099,0.9469735,0.1885111,-8.669049,-29.58261,-3.280617,1001.107
20.779200554,0.2476745,-2.02016,-0.3760219,0.03205591,0.9755908,0.1885878,-8.669049,-29.58261,-3.280617,1001.105
20.799384594,0.5540509,-1.960391,0.2343103,0.01483214,1.004932,0.1356693,-9.783477,-29.57946,-3.285053,1001.105
20.819568157,0.5540509,-1.422472,-0.3760219,0.002601669,0.9391345,0.1562814,-9.783477,-29.57946,-3.285053,1001.105
20.839752197,0.7378766,-0.1673286,0.2953435,0.009607504,0.9978845,0.1545143,-9.032435,-29.88932,-3.281988,1001.105
20.859935284,0.7991518,0.669434,-0.07085582,-0.03066983,0.9388338,0.1368608,-9.032435,-29.88932,-3.281988,1001.107
20.880119324,1.166803,1.267122,0.4174099,-0.02651511,1.033894,0.1338702,-9.032435,-29.88932,-3.281988,1001.107
20.900303364,0.5540509,2.402728,0.5394764,0.01576044,1.007776,0.1435096,-9.050229,-29.21224,-3.282224,1001.109
20.920487404,-0.05870173,2.044115,0.9056757,0.04238901,0.8795679,0.1638026,-9.050229,-29.21224,-3.282224,1001.109
20.940671444,0.1863993,3.119953,0.7836093,0.03305098,1.011964,0.235532,-9.050229,-29.21224,-3.282224,1001.113
20.960854530,0.9829776,3.179722,0.5394764,0.06334071,0.9817507,0.1516832,-9.050229,-29.21224,-3.282224,1001.113
20.981038570,0.5540509,4.076253,1.027742,0.04439604,1.033003,0.1342351,-9.412,-29.58051,-3.283574,1001.113
21.001222610,0.4927756,3.478565,0.5394764,-0.01688892,0.916487,0.1145019,-9.412,-29.58051,-3.283574,1001.113
21.018882751,-0.05870173,3.71764,0.8446425,0.06845171,0.9978275,0.1505341,-9.412,-29.58051,-3.283574,1001.115
21.039066792,0.4315003,3.657872,0.5394764,0.01832804,0.9558901,0.1025788,-9.413644,-29.58205,-2.844444,1001.115
21.059250832,0.4927756,3.23949,0.2953435,-0.003487594,1.004104,0.1429786,-9.413644,-29.58205,-2.844444,1001.115
21.079434872,0.7378766,3.179722,0.5394764,-0.002768588,0.9462262,0.06835743,-9.039115,-29.58023,-3.658493,1001.115
21.099617958,0.6766014,3.23949,0.4784431,0.007753019,1.111312,0.1470302,-9.039115,-29.58023,-3.658493,1001.116
21.119801998,0.4315003,3.359028,0.5394764,0.03601142,0.9691794,0.1081683,-9.039115,-29.58023,-3.658493,1001.116
21.139986038,0.8604271,3.598103,0.2343103,0.04280971,1.124968,0.09275133,-9.428357,-28.83901,-4.099359,1001.116
21.160170078,1.044253,3.000415,0.3563767,0.007711638,0.9967102,0.07469366,-9.428357,-28.83901,-4.099359,1001.116
21.180353165,0.1863993,2.880878,0.3563767,0.01435976,0.9641554,0.1426483,-9.055238,-28.83852,-4.53701,1001.116
21.200537205,0.5540509,3.060184,0.4174099,0.03177189,0.9609437,0.1016859,-9.055238,-28.83852,-4.53701,1001.116
21.220720768,0.3089498,1.80504,0.5394764,0.005826676,0.9132671,0.08229011,-9.055238,-28.83852,-4.53701,1001.113
21.240904808,0.2476745,1.207353,-0.131889,-0.01512909,0.9703003,0.1141046,-9.058291,-28.84138,-3.721483,1001.113
21.261088848,0.002573525,0.1315152,0.4174099,-0.0001389393,1.006773,0.1230764,-9.058291,-28.84138,-3.721483,1001.111
21.281271934,-0.9165553,-1.54201,0.1122438,0.006511937,0.8961241,0.1018999,-9.056882,-28.84006,-4.09788,1001.111
21.298933506,0.002573525,-2.378773,0.05121062,0.04296089,1.032966,0.08703756,-9.056882,-28.84006,-4.09788,1001.111
21.319117546,-0.5489038,-3.992529,-0.9863541,0.0713476,1.000017,0.03184606,-9.056882,-28.84006,-4.09788,1001.111
21.339300632,-1.100381,-4.88906,-0.4980884,0.06860138,1.023668,0.2323053,-8.315574,-28.84371,-3.655793,1001.111
