Time (s),Gyroscope X (deg/s),Gyroscope Y (deg/s),Gyroscope Z (deg/s),Accelerometer X (g),Accelerometer Y (g),Accelerometer Z (g),Magnetometer X (uT),Magnetometer Y (uT),Magnetometer Z (uT),Barometer (hPa)
0.000000000,0.006580459,-0.3081373,-0.07295592,0.01363555,0.9838956,0.1542316,9.088421,-22.63787,-32.00643,1001.17
0.020184040,-0.1158712,0.0505734,-0.01189287,0.01115286,0.9895803,0.1635929,9.088421,-22.63787,-32.00643,1001.17
0.040368080,-0.05447816,-0.009547504,-0.01193968,0.01650428,0.9857794,0.1639964,8.778857,-22.637,-32.00766,1001.17
0.060551167,0.006933815,-0.06932981,-0.07288545,0.01801037,0.9810152,0.1580608,8.778857,-22.637,-32.00766,1001.17
0.080735207,0.006974165,-0.0094996,-0.01184161,0.01988658,0.9854126,0.1571719,8.778857,-22.637,-32.00766,1001.17
0.100919247,0.007033656,-0.188463,-0.1338592,0.009300887,0.9833081,0.158119,9.467958,-23.00979,-31.5657,1001.17
0.121103287,-0.0542977,-0.06847109,-0.01170585,0.005919936,0.9837859,0.1537541,9.467958,-23.00979,-31.5657,1001.17
0.141286850,0.06836986,-0.008286626,0.1104858,0.007830954,0.9852434,0.1562131,8.780501,-22.63546,-32.4468,1001.17
0.161470890,0.06842893,0.1711342,0.04957743,0.02277373,0.985911,0.1600971,8.780501,-22.63546,-32.4468,1001.17
0.181654930,-0.1766323,0.2307172,0.04951041,0.01753336,0.9804707,0.1634032,8.780501,-22.63546,-32.4468,1001.17
0.201838970,0.007329209,0.2899818,0.1105342,0.01893932,0.9839115,0.1605497,8.778857,-22.637,-32.00766,1001.17
0.222023010,0.007080074,-0.06900217,0.1105633,0.01076472,0.9818379,0.1619805,8.778857,-22.637,-32.00766,1001.172
0.242206574,-0.05411669,-0.1884227,0.04969319,0.01415834,0.9804689,0.1585423,9.098126,-23.00719,-32.00631,1001.172
0.262390614,-0.05401924,-0.3074871,0.04979841,0.02512654,0.9908193,0.1572713,9.098126,-23.00719,-32.00631,1001.17
0.280051231,0.1297521,0.1111757,-0.1333149,0.02566711,0.9859539,0.1600937,9.098126,-23.00719,-32.00631,1001.17
0.300235272,-0.05422644,0.290034,0.04969801,0.01557568,0.9829121,0.1585885,9.090065,-22.63633,-32.44556,1001.172
0.320419311,0.06834478,-0.008862441,0.1108172,0.003938369,0.9881309,0.1523833,9.090065,-22.63633,-32.44556,1001.172
0.340602875,-0.05414651,-0.1875086,0.04988892,0.006408269,0.983328,0.151798,9.088421,-22.63787,-32.00643,1001.174
0.360786915,-0.3603292,-0.1272504,-0.07222606,0.01368656,0.9793869,0.1692264,9.088421,-22.63787,-32.00643,1001.174
0.380970955,0.06896357,-0.4254932,0.04998343,0.03089951,0.9917049,0.1743108,9.088421,-22.63787,-32.00643,1001.172
0.401154995,0.06873272,0.4116244,-0.07218944,0.02711497,0.9860719,0.1503622,9.099771,-23.00565,-32.44543,1001.172
0.421339035,-0.05377883,0.4102535,0.04971342,0.008854106,0.9804143,0.156116,9.099771,-23.00565,-32.44543,1001.174
0.441522598,-0.05385543,-0.06841996,-0.07222869,0.001091422,0.9841697,0.1566883,9.098126,-23.00719,-32.00631,1001.174
0.461706161,0.06888794,-0.008498265,-0.01118656,0.01360556,0.9862642,0.159631,9.098126,-23.00719,-32.00631,1001.172
0.481890201,0.00788209,-0.4860454,0.1107355,0.01844471,0.98482,0.1659209,9.088421,-22.63787,-32.00643,1001.172
0.502073765,0.06917596,-0.6040061,-0.01126409,0.01993195,0.9814076,0.1702304,9.088421,-22.63787,-32.00643,1001.172
0.539918899,-0.1144565,-0.5409852,-0.1329713,0.01804488,0.9780512,0.1638412,9.088421,-22.63787,-32.00643,1001.17
0.560102940,-0.1145346,-0.3604524,-0.07160415,0.0121587,0.9862282,0.1610921,9.088421,-22.63787,-32.00643,1001.17
0.580286980,-0.05308714,0.1180958,-0.01021881,0.009202627,0.9916676,0.1456333,8.770796,-22.26614,-32.44693,1001.17
0.600470066,0.06946204,0.6550427,-0.01038464,0.01165392,0.9882357,0.1533472,8.770796,-22.26614,-32.44693,1001.17
0.620654106,-0.05305123,-0.301926,0.1727219,0.002142753,0.9768222,0.1662731,8.770796,-22.26614,-32.44693,1001.17
0.640838146,-0.2368015,-0.8388427,0.1115808,0.03295878,0.9811792,0.1638812,9.480952,-23.37601,-32.44383,1001.17
0.661022186,0.06968841,-0.8967682,0.05047824,0.02613296,0.9875155,0.1499056,9.480952,-23.37601,-32.44383,1001.17
0.681206226,0.06972478,-1.192816,-0.1934938,0.01165477,0.9873363,0.1951759,8.417088,-23.00526,-32.00901,1001.17
0.701389790,0.191927,-0.9511409,-0.07080758,0.0204885,0.974954,0.1866459,8.417088,-23.00526,-32.00901,1001.17
0.721573830,0.2527011,-1.068122,-0.3145903,0.06174267,0.9934567,0.1903576,8.417088,-23.00526,-32.00901,1001.17
0.741757870,0.5583276,-0.5874028,-0.3138964,0.02360483,0.9556149,0.2358904,9.090065,-22.63633,-32.44556,1001.17
0.761941910,0.433452,2.339457,0.6028496,0.04200128,1.027535,0.3399566,9.090065,-22.63633,-32.44556,1001.17
0.782125473,1.534706,4.54736,-0.1299587,0.05127378,0.9400312,0.2851731,8.778857,-22.637,-32.00766,1001.172
0.802309513,-3.673691,6.639266,1.456905,-0.03885882,1.096094,0.1949695,8.778857,-22.637,-32.00766,1001.172
0.819970131,-0.1197258,8.611635,1.823104,-0.03475866,0.8752931,0.2840182,8.778857,-22.637,-32.00766,1001.172
0.840154171,1.289605,11.361,1.823104,-0.03417182,0.8278202,0.2349057,8.409026,-22.6344,-32.44828,1001.172
0.860338211,1.044504,12.01845,1.212772,-0.1058783,0.9760559,0.1308957,8.409026,-22.6344,-32.44828,1001.172
0.880521774,0.9832288,12.07822,1.945171,-0.0217045,0.9933531,0.2225927,9.109476,-23.37496,-32.44531,1001.172
0.900705814,0.7381278,14.05059,1.823104,-0.01749004,0.963749,0.2336788,9.109476,-23.37496,-32.44531,1001.17
0.920889854,-0.05845055,12.61614,1.945171,0.04277556,1.045762,0.213317,9.109476,-23.37496,-32.44531,1001.17
0.941073894,0.6768525,12.61614,2.12827,0.03944223,0.9234825,0.1773274,9.098126,-23.00719,-32.00631,1001.17
0.961257935,0.6155773,12.43684,2.189304,0.05216315,0.9483824,0.1773149,9.098126,-23.00719,-32.00631,1001.17
0.981441498,0.6768525,12.85522,2.006204,0.02752337,0.9519647,0.1701232,9.479308,-23.37756,-32.0047,1001.172
1.001625538,0.9832288,12.61614,2.189304,0.005752548,0.95745,0.1707503,9.479308,-23.37756,-32.0047,1001.172
1.021809101,1.595981,12.79545,2.189304,0.0004963792,0.9536123,0.159004,9.461541,-22.63738,-32.44408,1001.17
1.041992664,0.9219536,11.12192,2.31137,0.005226138,0.9605774,0.196602,9.461541,-22.63738,-32.44408,1001.17
1.062176704,0.8606783,11.30123,1.823104,0.01167063,0.9857383,0.2097418,9.461541,-22.63738,-32.44408,1001.17
1.082360744,0.7381278,10.82308,2.067237,0.04009041,1.028998,0.189633,9.850784,-23.3786,-32.00322,1001.17
1.100021839,0.799403,10.70354,1.823104,0.04797564,0.9753667,0.1861271,9.850784,-23.3786,-32.00322,1001.17
1.120205879,0.6155773,9.687473,1.640005,0.04779439,0.9904395,0.1805866,9.842722,-23.00775,-32.44248,1001.17
1.140389919,1.105779,9.567936,1.151739,0.03883775,0.9733755,0.1778291,9.842722,-23.00775,-32.44248,1001.161
1.160573006,0.3704762,8.253023,1.029673,-0.01481088,0.9829262,0.1605798,9.842722,-23.00775,-32.44248,1001.161
1.180757046,0.2479257,6.45996,1.151739,0.02050491,0.9724326,0.2454729,10.21255,-23.01034,-32.00187,1001.161
1.200941086,0.554302,5.204816,0.6024399,-0.008499469,0.9797398,0.1493159,10.21255,-23.01034,-32.00187,1001.161
1.221125126,0.309201,4.128979,0.7855396,0.04515383,0.9309286,0.1190759,10.19979,-22.64389,-31.18647,1001.161
1.241308689,0.2479257,4.188747,0.6024399,0.01581227,1.003334,0.1516936,10.19979,-22.64389,-31.18647,1001.161
1.261492729,0.2479257,3.172678,0.5414068,0.03662356,1.077533,0.1273424,10.19979,-22.64389,-31.18647,1001.161
1.281676769,0.6155773,2.754297,0.3583071,-0.007175034,1.029662,0.1498154,10.21091,-23.01189,-31.56274,1001.161
1.301860809,0.06409996,3.11291,0.4193403,0.04296856,0.9513988,0.1525722,10.21091,-23.01189,-31.56274,1001.161
1.322044372,0.6768525,3.232447,0.3583071,0.04915314,0.9184426,0.1626157,10.2142,-23.0088,-32.441,1001.165
1.342228412,1.044504,4.786435,0.3583071,0.02293819,0.9723589,0.1588555,10.2142,-23.0088,-32.441,1001.165
1.359889030,0.7381278,5.145047,0.6024399,-0.00926477,1.002871,0.1609663,10.2142,-23.0088,-32.441,1001.157
1.380073070,0.7381278,5.264585,0.6024399,-0.009964935,0.9810749,0.1590763,10.2142,-23.0088,-32.441,1001.157
1.400257110,0.06409996,5.50366,0.2362406,0.008516196,1.008714,0.1357534,10.2142,-23.0088,-32.441,1001.157
1.420441151,0.554302,6.818573,1.640005,0.01740951,0.9528861,0.062134,10.22062,-23.3812,-31.56261,1001.157
1.440624714,-0.1197258,8.253023,1.456905,-0.01163412,1.039149,0.1636342,10.22062,-23.3812,-31.56261,1001.159
1.460808754,0.06409996,7.177185,1.212772,-0.007580194,0.94316,0.1748663,10.22062,-23.3812,-31.56261,1001.159
1.480992794,0.1253752,9.030017,1.090706,0.0118456,0.9730551,0.1209318,10.57432,-22.64208,-32.00052,1001.163
1.501176834,0.1866505,7.356491,1.517938,0.04413826,1.012768,0.2199608,10.57432,-22.64208,-32.00052,1001.163
1.521360397,1.289605,8.133486,1.395872,0.02564603,0.9880893,0.1401859,10.95551,-23.01244,-31.99891,1001.161
1.541544437,0.2479257,7.236954,1.029673,0.02457309,0.9975287,0.1150718,10.95551,-23.01244,-31.99891,1001.161
1.561728477,0.554302,7.894411,0.9686393,0.0343108,0.9908265,0.07259182,10.58567,-23.00985,-32.43952,1001.155
1.581911564,0.4317515,7.715104,0.7855396,0.03184739,0.9159048,0.05067598,10.58567,-23.00985,-32.43952,1001.155
1.602095604,-0.3648268,8.312792,0.5414068,0.002632942,0.9368721,0.1401792,10.58567,-23.00985,-32.43952,1001.157
1.622279644,-0.3035516,7.41626,1.578972,-0.005144537,0.981959,0.1259988,10.9458,-22.64313,-31.99904,1001.157
1.639940739,-0.3035516,6.997879,0.8465728,0.00257211,1.02083,0.1754154,10.9458,-22.64313,-31.99904,1001.157
1.660124779,0.002824706,6.101347,1.151739,0.04662349,0.9299411,0.07428826,10.93445,-22.27536,-31.56004,1001.157
1.680308819,0.1253752,6.878341,1.029673,0.001549395,1.026665,0.1229811,10.93445,-22.27536,-31.56004,1001.157
1.700492859,0.1866505,6.220885,0.6024399,0.03594119,0.975978,0.05769794,10.93445,-22.27536,-31.56004,1001.157
1.720675945,0.1253752,6.699035,0.7245064,0.02556004,1.03517,0.1318727,10.93609,-22.27382,-31.99917,1001.159
1.740859985,0.06409996,6.45996,1.212772,0.04001238,0.9964752,0.1466564,10.93609,-22.27382,-31.99917,1001.159
1.761044025,-0.1810011,6.997879,1.151739,-0.01422501,1.014665,0.1368777,11.32698,-23.0135,-31.99743,1001.155
1.781227589,0.2479257,6.041579,0.9686393,-0.03497791,0.9762117,0.1234959,11.32698,-23.0135,-31.99743,1001.155
1.801411629,0.1253752,5.264585,0.7855396,0.004287541,1.039084,0.1451192,11.32698,-23.0135,-31.99743,1001.153
1.821595669,0.3704762,4.905972,0.6024399,0.05372414,0.9800467,0.1137098,11.32698,-23.0135,-31.99743,1001.153
1.841779709,-0.2422763,5.802504,0.9686393,0.047794,0.951731,0.126296,11.32698,-23.0135,-31.99743,1001.159
1.861963272,0.1253752,6.699035,1.578972,-0.009505686,0.9840299,0.1060961,11.68711,-22.64677,-31.55696,1001.159
1.882147312,0.2479257,6.579497,0.9686393,-0.03587809,1.010492,0.134394,11.68711,-22.64677,-31.55696,1001.161
1.902331352,-0.3648268,5.742735,0.6024399,0.02470046,0.9867281,0.1294555,11.68711,-22.64677,-31.55696,1001.161
1.919991970,0.6768525,6.041579,0.9076061,0.04607489,1.05308,0.1643118,11.32393,-23.01637,-31.18191,1001.161
1.940176010,0.1866505,7.057648,0.9076061,0.04113024,0.9443173,0.1310249,11.32393,-23.01637,-31.18191,1001.161
1.960360050,0.002824706,7.117416,0.9076061,0.01130859,0.9762759,0.1861989,11.33669,-23.38281,-31.9973,1001.167
1.980543613,0.06409996,7.057648,0.8465728,0.008014744,0.9694111,0.189474,11.33669,-23.38281,-31.9973,1001.167
2.000727654,0.2479257,6.93811,1.090706,-0.02403326,0.9488479,0.1141797,11.33669,-23.38281,-31.9973,1001.168
2.020911694,0.2479257,6.699035,1.029673,0.004496275,0.9431136,0.09991331,11.68711,-22.64677,-31.55696,1001.168
2.041095734,0.1866505,6.699035,1.151739,0.01179155,0.9773129,0.1312344,11.68711,-22.64677,-31.55696,1001.168
2.061279297,0.2479257,6.220885,0.9686393,0.005554606,1.014667,0.1173853,12.74956,-23.01885,-31.61537,1001.168
2.081463337,0.1253752,5.324354,0.7245064,0.01994686,1.020346,0.1525108,12.74956,-23.01885,-31.61537,1001.167
2.101647377,0.1866505,4.846204,0.7245064,0.03923956,0.9803084,0.1633681,12.74956,-23.01885,-31.61537,1001.167
2.121831417,0.2479257,5.204816,0.2362406,0.01730268,1.000183,0.1297326,11.9872,-22.27811,-31.61858,1001.17
2.142015457,0.2479257,5.324354,1.273805,0.00570102,1.001562,0.1687039,11.9872,-22.27811,-31.61858,1001.17
2.162198544,0.06409996,5.98181,0.8465728,0.009919513,0.9722912,0.146222,11.7001,-23.013,-32.43509,1001.17
2.182382584,0.002824706,5.384122,0.9076061,0.02615758,0.9847028,0.1892634,11.7001,-23.013,-32.43509,1001.17
2.200043678,-0.1197258,5.682966,0.8465728,0.02090821,0.9804581,0.1697236,11.7001,-23.013,-32.43509,1001.17
2.220227718,0.002824706,4.965741,0.6634732,0.01405709,0.9489354,0.1622976,12.3892,-23.38579,-31.99312,1001.17
2.240411758,-0.3648268,4.487591,1.273805,0.004907862,1.026268,0.2168795,12.3892,-23.38579,-31.99312,1001.17
2.260595322,-0.1197258,3.889903,0.6024399,0.01951387,0.9363921,0.1649609,12.75097,-23.01752,-31.99177,1001.17
2.280779362,0.2479257,3.232447,0.3583071,0.01641693,0.9534559,0.1497324,12.75097,-23.01752,-31.99177,1001.17
2.300962925,-0.2422763,3.471522,0.2972738,0.02244858,1.014296,0.08231889,12.74127,-22.64821,-31.99189,1001.174
2.321146488,-0.1810011,4.188747,0.6024399,0.03823968,0.9841527,0.1162468,12.74127,-22.64821,-31.99189,1001.174
2.341330528,-0.1810011,5.384122,0.7855396,0.00750188,0.9736586,0.1024598,12.74127,-22.64821,-31.99189,1001.174
2.361514568,0.002824706,5.563429,0.7855396,0.004787066,0.9583207,0.1303822,12.73962,-22.64975,-31.55276,1001.174
2.381698608,-0.4873773,5.384122,0.7245064,-0.01679578,0.9869961,0.1869389,12.73962,-22.64975,-31.55276,1001.176
2.401882171,0.309201,5.085279,0.4803735,0.00152108,0.9479415,0.1948977,11.99831,-22.64611,-31.99485,1001.176
2.422066212,0.06409996,4.487591,0.7855396,0.02433976,0.935791,0.1839188,11.99831,-22.64611,-31.99485,1001.178
2.442250252,0.06409996,4.726666,0.7855396,0.02444492,1.007295,0.1561386,11.99831,-22.64611,-31.99485,1001.178
2.459910869,0.002824706,4.726666,0.8465728,0.05022813,0.9488189,0.1792727,12.74127,-22.64821,-31.99189,1001.178
2.480094910,-0.6099278,5.085279,0.8465728,0.04479878,0.9984278,0.2011858,12.74127,-22.64821,-31.99189,1001.178
2.500278950,0.1253752,5.324354,0.9076061,0.004196572,1.006461,0.1610177,12.37809,-23.0178,-31.61685,1001.178
2.520462513,0.06409996,4.905972,0.7855396,0.01565603,0.9363348,0.1649654,12.37809,-23.0178,-31.61685,1001.178
2.540646553,-0.3035516,5.204816,0.7855396,0.005544581,0.9751617,0.1433657,12.37809,-23.0178,-31.61685,1001.182
2.560830593,-0.4873773,4.487591,0.9076061,0.0293152,1.002606,0.1964253,12.37809,-23.0178,-31.61685,1001.182
2.581014633,0.2479257,4.965741,0.6024399,0.02897258,0.9918404,0.1577724,12.37809,-23.0178,-31.61685,1001.18
2.601198196,0.06409996,4.54736,0.7245064,0.009067281,1.002779,0.148773,12.3795,-23.01647,-31.99324,1001.18
2.621382236,-0.1810011,3.949672,0.7855396,0.008823941,0.9827685,0.1629749,12.3795,-23.01647,-31.99324,1001.178
2.641566276,-0.2422763,3.232447,0.3583071,0.01602258,0.9858156,0.1596185,12.3795,-23.01647,-31.99324,1001.178
2.661750317,0.06409996,1.857766,0.4193403,-0.01073339,1.003945,0.1969972,12.74127,-22.64821,-31.99189,1001.178
2.681934357,-1.038855,3.650828,0.2362406,0.09428024,1.013663,0.2534795,12.74127,-22.64821,-31.99189,1001.178
2.702117920,0.2479257,3.591059,0.4193403,0.03184466,0.9533856,0.1798767,12.74933,-23.01907,-31.55264,1001.178
2.722301960,0.06409996,4.368053,0.8465728,-0.01455947,0.8430818,0.1422409,12.74933,-23.01907,-31.55264,1001.178
2.739962578,0.06409996,4.368053,0.9686393,-0.03041511,1.036168,0.1918248,12.74933,-23.01907,-31.55264,1001.178
2.760146618,-0.1197258,3.949672,0.8465728,-0.01082571,0.9335034,0.1177493,13.50058,-23.39181,-31.17315,1001.178
2.780330658,-0.6099278,3.949672,0.7855396,0.001090721,0.9841118,0.1625262,13.50058,-23.39181,-31.17315,1001.176
2.800514221,0.1253752,4.427822,0.9686393,0.06038224,0.9869922,0.1561706,13.11133,-22.65058,-31.61402,1001.176
2.820698261,0.4930267,6.161116,1.029673,0.05649912,0.9887227,0.1712947,13.11133,-22.65058,-31.61402,1001.178
2.840882301,0.1253752,6.400191,0.9686393,0.024593,0.9952968,0.1447094,13.12104,-23.0199,-31.61389,1001.178
2.861066341,0.554302,6.519729,0.9076061,-0.0001223928,0.9655868,0.1232344,13.12104,-23.0199,-31.61389,1001.178
2.881249428,0.1866505,5.98181,0.9686393,0.0005585666,1.029319,0.09821911,13.12104,-23.0199,-31.61389,1001.178
2.901433468,0.1866505,6.340423,0.8465728,0.01357443,0.9895083,0.1256341,12.75903,-23.38838,-31.55251,1001.178
2.921617508,0.2479257,6.340423,0.9686393,0.01453354,0.9504037,0.1126941,12.75903,-23.38838,-31.55251,1001.178
2.941801548,0.1866505,7.057648,1.151739,0.0159793,0.9899946,0.1290463,13.13051,-23.38943,-31.55103,1001.178
2.961985111,0.1253752,6.579497,1.151739,0.01855629,1.015269,0.1738221,13.13051,-23.38943,-31.55103,1001.178
2.982169151,0.4317515,6.758804,1.334839,0.01819094,0.9668565,0.1203132,13.13051,-23.38943,-31.55103,1001.178
3.002353191,-0.1197258,7.41626,1.212772,0.03437034,0.9850835,0.1143245,13.50363,-23.38894,-31.98868,1001.178
3.020014286,0.3704762,6.220885,1.640005,-0.06108313,1.100069,0.1517746,13.50363,-23.38894,-31.98868,1001.178
3.040197849,0.2479257,5.862272,0.7855396,-0.008217896,1.03577,0.167455,13.50058,-23.39181,-31.17315,1001.178
3.060381413,-0.3648268,4.368053,0.6634732,0.02800134,0.9932051,0.116441,13.50058,-23.39181,-31.17315,1001.178
3.080565453,-0.9775794,4.965741,0.9076061,0.06073465,1.037244,0.170789,13.50058,-23.39181,-31.17315,1001.178
3.100749493,-1.038855,5.324354,0.9686393,0.07231495,0.9577151,0.1458419,13.8737,-23.39131,-31.61081,1001.178
3.120933533,-0.3648268,5.682966,1.029673,0.02307632,1.000154,0.1900603,13.8737,-23.39131,-31.61081,1001.178
3.141117096,-0.1810011,5.50366,1.029673,0.01722198,0.9268237,0.1492041,14.23547,-23.02305,-31.60946,1001.178
3.161301136,-0.3648268,4.786435,0.9076061,-0.002954203,0.9986446,0.2056394,14.23547,-23.02305,-31.60946,1001.178
3.181485176,-0.05845055,4.427822,0.9076061,0.01375612,0.9735022,0.1764087,14.23547,-23.02305,-31.60946,1001.178
3.201669216,0.309201,4.188747,0.7855396,0.006604369,0.9269286,0.1716047,13.49251,-23.02095,-31.61241,1001.178
3.221853256,0.002824706,4.308285,0.9076061,0.02331902,0.94179,0.1149437,13.49251,-23.02095,-31.61241,1001.182
3.242036820,0.554302,3.770366,0.9076061,0.02108036,1.006218,0.1619612,13.86399,-23.022,-31.61093,1001.182
3.262220860,0.554302,3.411753,0.7855396,0.01489076,0.9604374,0.1274898,13.86399,-23.022,-31.61093,1001.182
3.279881477,0.6155773,2.873834,0.7855396,0.00646807,0.9785763,0.1424587,13.86399,-23.022,-31.61093,1001.182
3.300065517,0.2479257,2.754297,0.8465728,0.0177652,1.001469,0.1472745,14.25162,-23.70167,-31.17009,1001.182
3.320249557,0.06409996,2.574991,0.4803735,0.03419552,0.9987484,0.1530356,14.25162,-23.70167,-31.17009,1001.182
3.340433121,0.002824706,2.335916,0.7855396,0.0186455,1.0081,0.1639484,13.87205,-23.39286,-31.17167,1001.182
3.360617161,-0.05845055,3.172678,0.4803735,0.0138594,0.9655578,0.1470561,13.87205,-23.39286,-31.17167,1001.182
3.380801201,0.2479257,2.754297,0.6024399,0.004326514,0.9958732,0.1539957,13.88014,-23.70062,-31.17157,1001.182
3.400985241,0.002824706,3.292216,0.7245064,0.02286277,0.9787279,0.1516828,13.88014,-23.70062,-31.17157,1001.182
3.421169281,-0.05845055,3.471522,0.6634732,0.01509175,0.9431183,0.1641273,13.88014,-23.70062,-31.17157,1001.182
3.441352844,0.002824706,2.933603,0.6634732,0.01414026,0.9818833,0.162463,14.62473,-23.70118,-31.60774,1001.18
3.461536884,0.002824706,2.754297,0.5414068,0.01657419,0.9799237,0.1682597,14.62473,-23.70118,-31.60774,1001.18
3.481720447,0.309201,2.335916,0.4193403,0.004431296,1.026729,0.1696904,13.51031,-23.69802,-31.61218,1001.18
3.501904011,-0.1197258,1.738228,0.5414068,0.01865682,0.9674509,0.1587646,13.51031,-23.69802,-31.61218,1001.18
3.522088051,0.1866505,1.319847,0.4193403,0.02264653,0.996726,0.144254,13.51031,-23.69802,-31.61218,1001.182
3.542272091,-0.4261021,0.4830844,0.3583071,0.01851492,1.018635,0.1763218,13.87205,-23.39286,-31.17167,1001.182
3.559933185,-0.1810011,-0.1146031,0.1752074,0.006558526,1.050802,0.1395088,13.87205,-23.39286,-31.17167,1001.182
3.580117226,-0.7324783,-0.1146031,-0.4351248,0.04031245,1.010511,0.1975388,13.87205,-23.39286,-31.17167,1001.182
3.600301266,-0.2422763,-0.7720594,-0.1909919,0.0177414,1.00241,0.1988714,13.87205,-23.39286,-31.17167,1001.182
3.620485306,0.2479257,-0.7720594,-0.496158,0.03648593,0.9289026,0.1638145,13.87205,-23.39286,-31.17167,1001.182
3.640668392,0.1866505,-0.8318282,-0.1299587,0.01957844,0.9707109,0.1734254,13.88014,-23.70062,-31.17157,1001.182
3.660852432,-0.5486526,-1.070903,0.05314098,-0.001077741,0.9643865,0.1451085,13.88014,-23.70062,-31.17157,1001.182
3.681036472,-0.2422763,-1.130672,-0.007892244,0.006625445,1.005054,0.1600131,14.25302,-23.70035,-31.54649,1001.182
3.701220035,-0.1810011,-0.7122907,0.05314098,0.01194397,0.9647053,0.1324444,14.25302,-23.70035,-31.54649,1001.182
3.721404076,-0.05845055,-0.6525219,-0.007892244,0.008758018,1.028599,0.1342002,14.25302,-23.70035,-31.54649,1001.18
3.741588116,0.002824706,-0.8915969,-0.3130583,0.0207257,0.9963966,0.12576,14.22576,-22.65373,-31.60958,1001.18
3.761772156,0.1253752,-1.070903,-0.3130583,0.0337615,0.9959397,0.09361705,14.22576,-22.65373,-31.60958,1001.18
3.781955719,-0.05845055,-1.130672,-0.3740916,0.02280618,0.9837451,0.1342651,14.24997,-23.70322,-30.73096,1001.18
3.802139759,-0.7324783,-1.309978,-0.3130583,0.04176214,0.9701647,0.2127955,14.24997,-23.70322,-30.73096,1001.18
3.822323799,0.4317515,-0.7720594,0.1141742,0.001302224,1.08563,0.1864315,13.88155,-23.6993,-31.54796,1001.18
3.839984417,-0.6099278,-0.8318282,-0.1909919,-0.02587117,1.020122,0.1554931,13.88155,-23.6993,-31.54796,1001.178
3.860168457,0.002824706,-1.549053,-0.06892546,0.005087027,0.9723467,0.1822376,13.88155,-23.6993,-31.54796,1001.178
3.880352497,0.002824706,-1.608822,-0.4351248,0.02566209,0.9855388,0.2019319,13.87205,-23.39286,-31.17167,1001.178
3.900536060,0.554302,-1.369747,-0.1299587,0.04536552,0.9918472,0.1815912,13.87205,-23.39286,-31.17167,1001.178
3.920720100,0.002824706,-1.369747,-0.3130583,0.01880215,0.9552263,0.1702005,13.12746,-23.3923,-30.7355,1001.181
3.940904140,-0.6099278,-1.608822,-0.6792576,0.0414467,0.9567984,0.1920948,13.12746,-23.3923,-30.7355,1001.181
3.961088181,0.06409996,-1.190441,-0.3740916,0.01035198,0.9759414,0.1696497,13.12746,-23.3923,-30.7355,1001.181
3.981271744,-0.4873773,-1.25021,-0.7402909,0.002806183,1.001398,0.1808695,13.51031,-23.69802,-31.61218,1001.181
4.001455784,0.2479257,-1.429516,-0.3740916,0.01688437,0.9947945,0.134979,13.51031,-23.69802,-31.61218,1001.175
4.021639824,-0.4261021,-1.369747,-0.6182244,0.02219427,0.9933783,0.1879812,13.50058,-23.39181,-31.17315,1001.175
4.041823864,0.799403,-1.549053,-0.3130583,-0.009100645,0.9506146,0.1049476,13.50058,-23.39181,-31.17315,1001.179
4.062007904,-0.1810011,-1.788128,-0.5571912,-0.005062793,1.013819,0.186966,13.50058,-23.39181,-31.17315,1001.179
4.082191467,-0.3648268,-2.385816,-0.3130583,0.01110328,0.9932378,0.1855617,14.24353,-23.39391,-31.17019,1001.173
4.102375031,0.1253752,-2.505353,-0.7402909,0.009669098,1.031957,0.1877899,14.24353,-23.39391,-31.17019,1001.173
4.120036125,-0.2422763,-2.624891,-1.045457,0.03143864,1.066012,0.2064357,13.49087,-23.0225,-31.17328,1001.175
4.140220165,-1.10013,-2.744429,-0.1909919,0.03433433,0.9473082,0.1612625,13.49087,-23.0225,-31.17328,1001.175
4.160404205,0.8606783,-1.847897,-0.8013241,0.01132792,0.9739958,0.2207014,13.49087,-23.0225,-31.17328,1001.179
4.180587769,0.1866505,-3.103041,-0.3740916,0.0009747258,0.954268,0.1424723,13.8737,-23.39131,-31.61081,1001.179
4.200771809,-0.6712031,-3.282347,-0.7402909,0.01699562,1.062922,0.2521349,13.8737,-23.39131,-31.61081,1001.179
4.220955849,-0.6712031,-4.178878,-0.8013241,0.01356493,0.9481075,0.2450017,13.87205,-23.39286,-31.17167,1001.179
4.241139889,0.06409996,-3.760497,-1.10649,0.02705669,0.9106888,0.1785521,13.87205,-23.39286,-31.17167,1001.179
4.261322975,-0.1810011,-4.059341,-1.228557,0.02535747,1.010773,0.1975659,13.87205,-23.39286,-31.17167,1001.179
4.281507015,-0.3648268,-3.939804,-0.7402909,0.01855259,1.05364,0.2621672,14.24353,-23.39391,-31.17019,1001.179
4.301691055,-0.3035516,-3.581191,-0.4351248,-0.003004886,0.9219499,0.268351,14.24353,-23.39391,-31.17019,1001.179
4.321874618,-0.1810011,-4.178878,-0.1909919,-0.00341943,0.9178427,0.193336,13.50058,-23.39181,-31.17315,1001.177
4.342058658,0.9219536,-4.776566,-1.350623,0.03120509,1.043902,0.2857986,13.50058,-23.39181,-31.17315,1001.177
4.362242699,-0.4261021,-5.971941,-0.8013241,0.03688327,0.9364357,0.1376874,13.50058,-23.39181,-31.17315,1001.175
4.379903793,-0.1197258,-5.493791,-1.411656,0.07107738,1.0184,0.2297645,13.87205,-23.39286,-31.17167,1001.175
4.400087833,0.3704762,-7.047779,-0.2520251,-0.04788447,0.9283147,0.04811911,13.87205,-23.39286,-31.17167,1001.175
4.420271397,-0.7937536,-7.346622,-1.28959,0.006941872,1.018502,0.1724434,13.50058,-23.39181,-31.17315,1001.174
4.440454960,-0.6712031,-9.438528,-2.083022,0.06484287,0.9766632,0.1783426,13.50058,-23.39181,-31.17315,1001.174
4.460639477,-0.5486526,-9.020147,-1.045457,0.01344395,0.9188206,0.21766,13.50058,-23.39181,-31.17315,1001.172
4.480823040,-1.038855,-8.90061,-1.777856,0.05061006,0.9570165,0.1838137,13.50058,-23.39181,-31.17315,1001.172
4.501007080,0.1253752,-8.541997,-1.350623,0.01844463,1.025429,0.1263379,13.50058,-23.39181,-31.17315,1001.172
4.521190643,-0.1197258,-8.90061,-1.594756,-0.05715335,0.9745324,0.1619356,13.13051,-23.38943,-31.55103,1001.172
4.541374683,0.7381278,-9.797141,-1.777856,-0.02801914,0.9585662,0.154278,13.13051,-23.38943,-31.55103,1001.172
4.561558723,0.3704762,-10.39483,-1.411656,-0.0108174,1.011543,0.1635732,13.13719,-23.69852,-31.17452,1001.172
4.581742763,0.1253752,-10.33506,-1.838889,-0.02662403,1.042341,0.1612864,13.13719,-23.69852,-31.17452,1001.172
4.601926803,0.4317515,-10.87298,-2.266121,0.05528332,1.009622,0.1629516,13.13719,-23.69852,-31.17452,1001.172
4.622110367,0.2479257,-9.976447,-0.7402909,0.01606714,0.983682,0.08172235,13.13554,-23.70007,-30.7354,1001.172
4.642294407,-0.9163041,-9.558066,-1.10649,-0.02442872,1.020763,0.1418793,13.13554,-23.70007,-30.7354,1001.172
4.659955025,0.1866505,-10.51437,-1.350623,0.03693515,1.01226,0.1138854,12.39424,-23.69642,-31.17748,1001.174
4.680139065,0.1866505,-10.09598,-1.594756,0.008756682,0.9501665,0.07912341,12.39424,-23.69642,-31.17748,1001.174
4.700323105,-0.1197258,-9.737372,-1.47269,0.03630039,0.9842368,0.1537185,12.39424,-23.69642,-31.17748,1001.174
4.720506668,-0.4261021,-9.558066,-0.7402909,-0.02803523,0.9601448,0.141658,12.3845,-23.3902,-30.73846,1001.174
4.740690708,0.7381278,-10.09598,-0.8013241,0.0007243602,0.9742922,0.1749837,12.3845,-23.3902,-30.73846,1001.174
4.760874748,-1.283956,-9.797141,-1.350623,-0.009283687,0.8069558,0.07972164,12.03247,-24.06468,-31.17883,1001.174
4.781058788,1.044504,-8.123616,-1.411656,0.00276251,1.165097,0.1393435,12.03247,-24.06468,-31.17883,1001.174
4.801242828,0.6768525,-6.748935,-1.716822,-0.01595244,0.920006,0.05423342,12.03247,-24.06468,-31.17883,1001.174
4.821426392,0.4317515,-6.569629,-1.167523,0.06055915,1.012176,0.1576419,12.00497,-23.01829,-31.1792,1001.172
4.841610432,0.554302,-6.211016,0.1141742,-0.01618269,1.017106,0.132063,12.00497,-23.01829,-31.1792,1001.172
4.861794472,-0.5486526,-4.836335,-0.007892244,-0.02199294,0.9396642,0.1149681,12.40394,-24.06573,-31.17735,1001.172
4.881978512,-0.7324783,-5.314485,-0.1299587,-0.07160848,1.012996,0.1705034,12.40394,-24.06573,-31.17735,1001.172
4.902161598,0.06409996,-5.493791,-0.3130583,-0.02242292,0.9748963,0.1283173,12.40394,-24.06573,-31.17735,1001.172
4.922345638,0.6768525,-4.836335,-0.6792576,-0.008238309,1.03893,0.09306978,11.70652,-23.38541,-31.5567,1001.172
4.940006733,0.6155773,-4.657029,-0.5571912,0.03663519,0.9962948,0.1597957,11.70652,-23.38541,-31.5567,1001.174
4.960190773,0.1253752,-4.059341,-0.496158,0.01891798,0.9067342,0.1254478,11.7132,-23.69449,-31.18019,1001.174
4.980374813,-0.2422763,-4.298416,-0.6182244,0.05523593,1.014431,0.1177942,11.7132,-23.69449,-31.18019,1001.174
5.000558853,0.4317515,-3.342116,-0.6792576,0.006353223,0.9894428,0.07260547,11.7132,-23.69449,-31.18019,1001.174
5.020742416,-0.1197258,-3.16281,-0.3130583,-0.03018677,1.018202,0.1471895,12.02276,-23.69537,-31.17896,1001.174
5.040926456,0.309201,-3.820266,-0.6792576,-0.01423267,0.9763246,0.09427246,12.02276,-23.69537,-31.17896,1001.174
5.061109543,-0.4873773,-4.417953,-0.2520251,-0.007157671,0.9885424,0.1431625,11.35949,-24.43361,-30.74228,1001.178
5.081293583,-0.6099278,-4.657029,-0.1299587,0.008193667,0.9957309,0.1252786,11.35949,-24.43361,-30.74228,1001.178
5.101477623,-0.7937536,-5.135179,-0.3130583,0.02315545,0.9950613,0.117458,11.33199,-23.38722,-30.74265,1001.174
5.121661663,-0.3648268,-5.254716,-0.6792576,0.02066719,1.001255,0.1243964,11.33199,-23.38722,-30.74265,1001.174
5.141845703,-0.05845055,-6.151248,-0.9844238,0.001882757,0.9196674,0.1150239,11.33199,-23.38722,-30.74265,1001.175
5.162029266,-0.6712031,-6.808703,-0.9844238,0.04552128,0.9795147,0.1550712,11.70511,-23.38673,-31.1803,1001.175
5.182213306,-0.3035516,-7.645466,-0.6792576,0.01006847,1.000012,0.1360655,11.70511,-23.38673,-31.1803,1001.175
5.199874878,0.2479257,-7.645466,-0.9844238,-0.007284647,0.9616691,0.01903785,11.33363,-23.38568,-31.18178,1001.175
5.220057964,0.06409996,-7.705235,-1.28959,0.004480009,0.9446777,0.08875279,11.33363,-23.38568,-31.18178,1001.174
5.240242004,0.002824706,-7.824772,-1.716822,0.04975208,0.9879982,0.1854013,11.33363,-23.38568,-31.18178,1001.174
5.260425568,0.4930267,-6.98801,-1.167523,-0.01229854,1.014491,0.1573081,11.34172,-23.69344,-31.18167,1001.172
5.280609608,0.4317515,-6.629397,-1.228557,0.01273635,0.9786114,0.1482893,11.34172,-23.69344,-31.18167,1001.172
5.300793648,0.2479257,-6.270785,-1.045457,0.018514,0.9798832,0.1264095,11.71155,-23.69604,-30.74106,1001.172
5.320977688,0.06409996,-5.374253,-0.8013241,0.009765246,0.9857162,0.1114536,11.71155,-23.69604,-30.74106,1001.172
5.341161728,-0.3648268,-4.657029,-0.6792576,0.02750973,0.953746,0.1370706,11.71155,-23.69604,-30.74106,1001.168
5.361345291,-0.1810011,-3.222579,-0.4351248,0.0215519,1.007281,0.153223,11.34172,-23.69344,-31.18167,1001.168
5.381529331,0.1866505,-2.086972,-0.1909919,-0.01270565,0.9684436,0.1583437,11.34172,-23.69344,-31.18167,1001.166
5.401713371,0.2479257,-1.011135,-0.2520251,-0.01171984,1.006961,0.1357484,11.34172,-23.69344,-31.18167,1001.166
5.421897411,0.309201,-0.0548344,0.3583071,-0.01700617,1.005477,0.1308609,11.34172,-23.69344,-31.18167,1001.164
5.442080974,-0.3648268,0.7221594,0.4193403,0.009204087,0.9917883,0.133471,11.34172,-23.69344,-31.18167,1001.164
5.462265015,0.002824706,1.558922,0.3583071,0.01218935,0.9452379,0.09264526,11.33363,-23.38568,-31.18178,1001.164
5.479925632,-0.4261021,2.216378,0.2972738,0.03451856,0.9721283,0.1505619,11.33363,-23.38568,-31.18178,1001.164
5.500109672,0.06409996,2.574991,0.2972738,0.02187408,1.020235,0.1666168,10.9816,-24.06016,-31.62215,1001.164
5.520293713,0.1253752,2.455453,0.3583071,0.02373548,0.9866704,0.133835,10.9816,-24.06016,-31.62215,1001.163
5.540477753,-0.3648268,2.096841,0.1752074,0.02850337,0.9909708,0.147051,10.9816,-24.06016,-31.62215,1001.163
5.560661316,-0.4873773,2.216378,-0.007892244,0.0245031,1.002408,0.160421,10.9686,-23.69394,-30.74402,1001.159
5.580845356,-0.4873773,1.618691,0.1752074,-0.0005956083,0.9237702,0.1861504,10.9686,-23.69394,-30.74402,1001.159
5.601029396,0.2479257,0.6623907,-0.1299587,-0.01311291,1.001675,0.1779789,10.96216,-23.38463,-31.18326,1001.159
5.621213436,-0.05845055,-0.2341407,-0.007892244,-0.007714741,0.9949526,0.1311256,10.96216,-23.38463,-31.18326,1001.159
5.641396999,-0.7324783,-0.8915969,0.1752074,0.03364038,0.9250572,0.1564438,10.97025,-23.69239,-31.18315,1001.159
5.661581039,-0.3035516,-0.4732157,-0.3130583,0.02750758,0.9932141,0.1636408,10.97025,-23.69239,-31.18315,1001.159
5.681765079,0.6155773,-0.9513657,-0.06892546,0.02365734,0.9918454,0.198167,10.97025,-23.69239,-31.18315,1001.159
5.701949119,0.002824706,-1.429516,-0.496158,0.00331627,0.9978913,0.2421093,11.71461,-23.69317,-31.55659,1001.159
5.722132206,0.4930267,-1.847897,-0.1909919,-0.005140496,1.02,0.1987665,11.71461,-23.69317,-31.55659,1001.159
5.742316246,-0.1810011,-1.489285,-0.496158,0.002469858,0.9495683,0.1788711,11.70347,-23.38828,-30.74117,1001.159
5.759977341,-0.05845055,-1.429516,-0.3740916,0.02756962,0.9480319,0.1758843,11.70347,-23.38828,-30.74117,1001.156
5.780161381,0.06409996,-0.1146031,0.1752074,0.04478744,0.9597837,0.1892295,11.70347,-23.38828,-30.74117,1001.156
5.800345421,0.2479257,0.9014657,0.1141742,-0.00391951,0.9995297,0.1638119,10.9686,-23.69394,-30.74402,1001.155
5.820529461,0.4317515,0.5428532,-0.06892546,-0.01282777,0.9777397,0.1979414,10.9686,-23.69394,-30.74402,1001.155
5.840713024,0.309201,0.3635469,-0.1909919,-0.01136021,0.9369317,0.1620973,10.59068,-23.38358,-31.18473,1001.153
5.860897064,-0.1810011,-0.4732157,-0.1909919,0.01915414,0.9657975,0.1796544,10.59068,-23.38358,-31.18473,1001.153
5.881080627,0.3704762,-0.9513657,-0.1299587,0.0209605,0.9364088,0.1654457,10.59068,-23.38358,-31.18473,1001.159
5.901264191,0.06409996,-1.190441,-0.007892244,0.01287918,0.9661791,0.1806443,10.97831,-24.06325,-30.74389,1001.159
5.921448231,0.4317515,-2.505353,-0.3740916,0.03317108,1.003471,0.1638355,10.97831,-24.06325,-30.74389,1001.157
5.941632271,0.2479257,-3.521422,-0.9233905,0.03383596,0.9885215,0.1576996,10.97025,-23.69239,-31.18315,1001.157
5.961816311,0.1866505,-4.537491,-0.7402909,0.0226363,1.036495,0.1893204,10.97025,-23.69239,-31.18315,1001.149
5.981999874,-0.6099278,-5.194947,-0.9844238,0.004558978,0.979217,0.02617998,10.97025,-23.69239,-31.18315,1001.149
6.002183914,-1.529057,-5.732866,-0.8013241,0.07125472,1.004943,0.1701343,10.96696,-23.69548,-30.30489,1001.153
6.022367954,-1.161405,-5.55356,-0.8623573,-0.03905748,0.9540521,0.1532317,10.96696,-23.69548,-30.30489,1001.153
6.040029049,-1.406506,-6.629397,-0.8013241,-0.02865323,1.00989,0.2058997,11.33199,-23.38722,-30.74265,1001.151
6.060212612,-0.4261021,-7.107547,-0.7402909,0.01353074,0.8321605,0.2105922,11.33199,-23.38722,-30.74265,1001.151
6.080396652,-0.8550289,-7.824772,-1.045457,0.01557639,0.9027095,0.1842501,11.33199,-23.38722,-30.74265,1001.151
6.100580215,0.1253752,-6.98801,-1.411656,0.004567576,1.015695,0.1587669,11.7229,-24.0638,-31.18006,1001.151
6.120764256,-0.5486526,-7.585698,-1.10649,0.023802,0.9805348,0.1663148,11.7229,-24.0638,-31.18006,1001.151
6.140948296,-0.3648268,-7.824772,-1.045457,-0.004069077,1.012374,0.1387638,10.95245,-23.01531,-31.18339,1001.151
6.161132336,-0.05845055,-8.302922,-1.28959,-0.02295822,0.9395823,0.1217801,10.95245,-23.01531,-31.18339,1001.151
6.181315899,-0.4261021,-8.541997,-0.9844238,0.02692905,1.000759,0.183741,10.95245,-23.01531,-31.18339,1001.151
6.201499939,-0.3035516,-9.020147,-1.350623,0.04747403,1.017282,0.1606817,10.58098,-23.01426,-31.18486,1001.153
6.221683979,0.4317515,-10.33506,-1.594756,0.003446605,1.026012,0.289378,10.58098,-23.01426,-31.18486,1001.153
6.241868019,-1.038855,-10.57413,-1.899922,0.03565514,0.9969306,0.1919244,10.21592,-23.38562,-30.30795,1001.151
6.262052059,-0.9775794,-11.29136,-1.47269,0.008105558,0.9614056,0.2151045,10.21592,-23.38562,-30.30795,1001.151
6.282235622,-0.1197258,-11.5902,-1.960955,-0.009263348,0.9623725,0.18936,10.21921,-23.38253,-31.18621,1001.155
6.299896240,-0.3035516,-12.12812,-2.144055,0.0193093,0.9920914,0.2156954,10.21921,-23.38253,-31.18621,1001.155
6.320080280,0.06409996,-12.66604,-2.388188,-0.004704606,1.022963,0.2426173,10.21921,-23.38253,-31.18621,1001.155
6.340264320,-0.4873773,-12.84535,-1.838889,0.002449972,0.950833,0.197873,10.22729,-23.69029,-31.18611,1001.155
6.360448360,-0.5486526,-13.26373,-1.594756,-0.004869669,0.9571735,0.2315837,10.22729,-23.69029,-31.18611,1001.155
6.380631924,-0.2422763,-12.48674,-1.960955,0.01837052,1.028998,0.2548676,9.484343,-23.68819,-31.18906,1001.155
6.400815964,-0.8550289,-12.60627,-1.594756,-0.02194029,1.053259,0.1911774,9.484343,-23.68819,-31.18906,1001.155
6.421000004,-0.6712031,-13.62234,-2.571287,-0.03617969,0.9963309,0.0961604,9.484343,-23.68819,-31.18906,1001.155
6.441184044,-0.3035516,-13.80165,-2.021988,0.0671279,1.066894,0.1708799,10.21091,-23.01189,-31.56274,1001.155
6.461368084,0.1866505,-13.02465,-1.960955,-0.02316617,1.036588,0.1115356,10.21091,-23.01189,-31.56274,1001.155
6.481551647,-0.5486526,-12.60627,-1.899922,-0.006567818,0.9403487,0.1178785,9.114511,-23.68559,-31.62967,1001.159
6.501735687,-0.8550289,-13.3235,-2.632321,0.02842975,0.9578427,0.116227,9.114511,-23.68559,-31.62967,1001.159
6.521919727,-0.4873773,-12.84535,-1.716822,-0.03782899,1.009615,0.2686774,9.114511,-23.68559,-31.62967,1001.159
6.542103767,-0.3035516,-13.56257,-2.571287,0.002450701,0.9518629,0.1429091,9.846087,-23.38302,-30.74856,1001.159
6.562286854,-0.2422763,-13.92118,-1.594756,0.01469134,1.132591,0.3080148,9.846087,-23.38302,-30.74856,1001.159
6.579947948,-0.9163041,-14.10049,-2.632321,-0.01391578,0.9482259,0.1920064,8.80166,-23.68781,-30.75265,1001.157
6.600131988,-0.05845055,-15.35564,-1.716822,0.1213556,1.088522,0.2208602,8.80166,-23.68781,-30.75265,1001.157
6.620316029,-0.4873773,-13.08442,-2.693354,0.007059014,0.9710881,0.06786188,8.80166,-23.68781,-30.75265,1001.157
6.640500069,-1.283956,-15.2361,-1.28959,-0.009409096,1.052885,0.2475957,9.122573,-24.05645,-31.19041,1001.157
6.660684109,-0.2422763,-16.37171,-2.99852,-0.01147882,0.9465173,0.1725055,9.122573,-24.05645,-31.19041,1001.157
6.680867672,-0.4261021,-17.86592,-1.899922,-0.02306652,0.9471115,0.192971,8.811365,-24.05712,-30.75252,1001.157
6.701051712,-0.4261021,-17.32801,-2.81542,0.04088642,0.962943,0.2068148,8.811365,-24.05712,-30.75252,1001.159
6.721234798,-0.4261021,-17.02916,-2.205088,-0.004070449,1.01323,0.1013136,8.811365,-24.05712,-30.75252,1001.159
6.741418838,-0.2422763,-16.49124,-3.242653,-0.01969048,0.9501063,0.04266997,8.791927,-23.38159,-30.31362,1001.163
6.761602879,-0.5486526,-16.55101,-2.388188,-0.001461377,0.9947236,0.2123718,8.791927,-23.38159,-30.31362,1001.163
6.781786919,0.4930267,-16.79009,-2.937487,-0.01001647,0.9836012,0.2462253,8.420452,-23.38054,-30.3151,1001.165
6.801970959,0.06409996,-17.62685,-2.754387,0.002623678,1.017337,0.1369059,8.420452,-23.38054,-30.3151,1001.165
6.822154522,-0.4261021,-16.07286,-2.388188,-0.04118919,1.01084,0.1402477,8.058708,-23.6857,-30.7556,1001.165
6.842338562,-1.406506,-16.55101,-2.144055,0.01777077,1.000961,0.1496974,8.058708,-23.6857,-30.7556,1001.165
6.860000133,-0.4873773,-15.59471,-2.388188,0.03578102,0.9889155,0.07206525,8.058708,-23.6857,-30.7556,1001.167
6.880183697,-0.3648268,-14.04072,-2.266121,0.009625903,1.115434,0.1738713,7.687233,-23.68465,-30.75708,1001.167
6.900367260,-0.1197258,-13.92118,-2.021988,0.07279047,0.9987528,0.1125923,7.687233,-23.68465,-30.75708,1001.167
6.920550823,0.2479257,-12.48674,-1.716822,-0.03520504,1.114186,0.1349855,7.322409,-24.05579,-29.9429,1001.167
6.940734863,0.1866505,-12.96488,-1.960955,0.02225574,1.02938,0.1244642,7.322409,-24.05579,-29.9429,1001.173
6.960918903,-0.3648268,-12.84535,-2.205088,0.02516956,0.9092667,0.07488374,7.322409,-24.05579,-29.9429,1001.173
6.981102943,0.06409996,-11.4109,-1.411656,-0.009029976,1.06279,0.1777227,7.315757,-23.6836,-30.75856,1001.173
7.001286983,-0.5486526,-10.81321,-1.28959,-0.004976662,0.9677198,0.1451802,7.315757,-23.6836,-30.75856,1001.173
7.021470547,-0.2422763,-10.87298,-1.350623,0.0009863565,0.9929363,0.1519961,7.315757,-23.6836,-30.75856,1001.174
7.041654587,-0.3648268,-10.4546,-1.228557,-0.008852991,1.049304,0.1210114,7.315757,-23.6836,-30.75856,1001.174
7.061838627,-0.4261021,-10.27529,-1.716822,0.01207833,0.9515731,0.2353407,7.315757,-23.6836,-30.75856,1001.174
7.082022667,-0.2422763,-10.69367,-1.838889,0.009226481,0.9907311,0.09354998,6.950934,-24.05473,-29.94438,1001.174
7.102206230,-0.4873773,-10.09598,-1.716822,0.0188833,0.9493304,0.129697,6.950934,-24.05473,-29.94438,1001.176
7.119866848,-0.3648268,-9.797141,-1.594756,0.0176834,1.009251,0.09536386,6.600278,-24.79099,-30.322,1001.176
7.140050888,-0.05845055,-9.558066,-1.411656,0.02200508,1.009734,0.150838,6.600278,-24.79099,-30.322,1001.176
7.160234928,-0.3648268,-9.318991,-1.167523,0.005565059,1.013592,0.1280689,6.600278,-24.79099,-30.322,1001.176
7.180418968,-0.2422763,-9.199453,-0.9233905,0.0002975035,1.010752,0.1134228,6.593861,-24.41858,-31.20039,1001.176
7.200603008,-0.3035516,-9.558066,-1.350623,-0.001097774,0.9666088,0.1164439,6.593861,-24.41858,-31.20039,1001.176
7.220786572,0.002824706,-9.976447,-1.167523,-0.01487164,1.028214,0.1376334,6.950934,-24.05473,-29.94438,1001.176
7.240970612,-1.283956,-9.498297,-1.655789,0.07399429,0.9768636,0.2206662,6.950934,-24.05473,-29.94438,1001.176
7.261154652,0.4930267,-9.617835,-1.533723,0.01222397,1.020605,0.1637187,6.950934,-24.05473,-29.94438,1001.178
7.281338692,-0.4261021,-10.27529,-1.47269,0.009868508,1.016447,0.1397972,6.589164,-24.423,-29.94573,1001.178
7.301522255,-0.3648268,-10.69367,-1.045457,-0.00411895,1.016007,0.1631651,6.589164,-24.423,-29.94573,1001.167
7.321706295,-0.2422763,-10.33506,-1.655789,0.01924274,0.9991943,0.1345761,6.219097,-24.42062,-30.32361,1001.167
7.341890335,-0.4261021,-10.4546,-1.533723,0.01634298,0.9995922,0.1389675,6.219097,-24.42062,-30.32361,1001.173
7.362074375,-0.2422763,-9.976447,-1.350623,0.005027369,0.97808,0.1414779,5.536649,-24.42002,-29.94992,1001.173
7.382258415,-0.2422763,-9.85691,-1.47269,0.0209865,0.9743257,0.1530582,5.536649,-24.42002,-29.94992,1001.173
7.399919033,-0.2422763,-9.617835,-1.28959,0.02771964,1.015487,0.1655411,5.536649,-24.42002,-29.94992,1001.173
7.420102596,-0.3035516,-9.318991,-1.28959,0.01326612,0.9747919,0.143347,5.526943,-24.0507,-29.95005,1001.171
7.440286636,0.002824706,-9.020147,-1.28959,0.0143582,1.003672,0.1643536,5.526943,-24.0507,-29.95005,1001.171
7.460470676,-0.3035516,-8.42246,-1.47269,0.0232025,0.9902242,0.1655343,5.526943,-24.0507,-29.95005,1001.173
7.480654716,-0.4873773,-8.123616,-1.228557,0.02991426,0.99385,0.1519718,5.526943,-24.0507,-29.95005,1001.173
7.500838280,-0.2422763,-7.525928,-0.9233905,-0.004791753,0.9916259,0.1777678,5.526943,-24.0507,-29.95005,1001.161
7.521022320,-0.4873773,-8.302922,-0.7402909,0.01287135,0.9674712,0.1480686,5.525299,-24.05225,-29.51092,1001.161
7.541206360,-0.7324783,-8.183385,-1.167523,-0.003214109,0.9405274,0.2025432,5.525299,-24.05225,-29.51092,1001.161
7.561390400,1.595981,-9.139685,-1.350623,0.05769028,1.170804,0.08585124,5.8268,-23.68227,-29.94895,1001.161
7.581574440,-0.4873773,-8.302922,-1.045457,0.03118978,0.9304861,0.04512649,5.8268,-23.68227,-29.94895,1001.161
7.601758003,-0.6099278,-6.748935,-0.8623573,0.04226124,0.969628,0.1699645,5.8268,-23.68227,-29.94895,1001.165
7.621941566,0.3704762,-7.227085,-1.10649,-0.004141376,1.018032,0.1544467,5.536649,-24.42002,-29.94992,1001.165
7.642125606,-0.1810011,-7.705235,-0.8623573,0.004667821,1.0075,0.1547119,5.536649,-24.42002,-29.94992,1001.165
7.662309170,0.06409996,-7.645466,-1.228557,0.001185739,0.9764539,0.1531294,5.836506,-24.05158,-29.94882,1001.165
7.679970741,-0.3648268,-8.063847,-1.10649,0.0004249827,0.9603145,0.1182634,5.836506,-24.05158,-29.94882,1001.167
7.700154304,0.1253752,-8.302922,-1.411656,0.04929637,1.025951,0.168636,5.836506,-24.05158,-29.94882,1001.167
7.720338345,0.2479257,-8.123616,-1.350623,0.03777986,1.020796,0.1826619,5.17159,-24.79137,-29.07301,1001.169
7.740522385,-0.6099278,-8.482228,-1.350623,-0.01845659,0.9268252,0.09573193,5.17159,-24.79137,-29.07301,1001.169
7.760706425,-0.9163041,-9.318991,-1.47269,0.0004919809,0.9938641,0.1554213,4.410872,-24.0491,-29.51536,1001.167
7.780890465,-0.2422763,-10.4546,-1.716822,0.009298785,0.9831344,0.1756327,4.410872,-24.0491,-29.51536,1001.167
7.801073551,-0.3035516,-10.39483,-1.594756,0.01098579,0.9642404,0.1290305,4.410872,-24.0491,-29.51536,1001.167
7.821257591,-0.1810011,-10.99252,-1.838889,0.02782164,1.007436,0.1468913,4.780703,-24.0517,-29.07475,1001.167
7.841441154,-0.4261021,-11.29136,-1.838889,0.002593271,0.9800251,0.1371406,4.780703,-24.0517,-29.07475,1001.17
7.861625195,-0.1197258,-12.24766,-2.083022,0.02037637,0.9850755,0.1430535,5.163529,-24.42051,-29.51227,1001.17
7.881809235,-0.1810011,-12.48674,-2.083022,-0.01961908,0.983051,0.09198056,5.163529,-24.42051,-29.51227,1001.166
7.901993275,-0.9163041,-12.78558,-2.388188,0.1063666,0.9718801,0.2341444,5.163529,-24.42051,-29.51227,1001.166
7.922177315,-0.2422763,-13.62234,-1.960955,-0.05729599,0.9869791,0.128121,4.428639,-24.78927,-29.07597,1001.164
7.942360878,0.002824706,-14.69818,-1.899922,-0.001554021,1.043193,0.1617531,4.428639,-24.78927,-29.07597,1001.164
7.960022449,-0.2422763,-15.29587,-2.144055,0.0275539,1.028933,0.1774855,4.428639,-24.78927,-29.07597,1001.164
7.980205536,-0.5486526,-15.17633,-2.327155,0.0173581,0.9950688,0.1568802,4.428639,-24.78927,-29.07597,1001.164
8.000389576,-1.161405,-15.29587,-1.960955,0.0469637,0.9395371,0.1820133,4.428639,-24.78927,-29.07597,1001.167
8.020573616,-0.6712031,-14.69818,-2.327155,0.02392844,0.9696569,0.1884823,3.685687,-24.78717,-29.07893,1001.167
8.040757179,-0.3648268,-15.35564,-2.388188,0.0132413,0.9766183,0.1545747,3.685687,-24.78717,-29.07893,1001.167
8.060941219,-0.3035516,-14.99702,-2.327155,0.009008501,1.006646,0.1984814,3.675982,-24.41786,-29.07905,1001.167
8.081125259,-0.4873773,-15.35564,-2.266121,0.005209085,0.9630458,0.1431264,3.675982,-24.41786,-29.07905,1001.167
8.101309299,-0.2422763,-15.47517,-2.876454,0.02049595,1.014247,0.182071,3.314212,-24.78612,-29.0804,1001.167
8.121493340,-0.4261021,-15.89355,-2.266121,0.01068631,0.9879608,0.1796189,3.314212,-24.78612,-29.0804,1001.167
8.141676903,-0.4873773,-15.95332,-2.205088,-0.02309748,0.95037,0.1575147,3.314212,-24.78612,-29.0804,1001.167
8.161860943,-0.5486526,-16.73032,-2.81542,0.01834754,0.9536245,0.1356218,2.931386,-24.4173,-28.64288,1001.167
8.182044983,0.002824706,-16.55101,-2.693354,0.02449047,0.9636571,0.1591675,2.931386,-24.4173,-28.64288,1001.167
8.202229023,-0.3648268,-16.31194,-2.327155,0.004090738,0.9755185,0.1540798,2.939683,-24.78794,-28.26636,1001.171
8.219889641,-0.9775794,-16.43147,-1.960955,0.002250872,0.9276929,0.1857373,2.939683,-24.78794,-28.26636,1001.171
8.240073204,-0.9163041,-16.55101,-2.510254,-0.04156284,1.000417,0.2135166,2.939683,-24.78794,-28.26636,1001.173
8.260257244,0.06409996,-16.67055,-2.083022,0.01507278,0.983135,0.2330414,2.929977,-24.41862,-28.26649,1001.173
8.280441284,-0.7937536,-16.49124,-2.449221,0.01511496,0.9401895,0.2151609,2.929977,-24.41862,-28.26649,1001.173
8.300625324,-0.4261021,-16.96939,-2.449221,0.01900595,0.9777855,0.1920565,2.929977,-24.41862,-28.26649,1001.173
8.320809364,-0.1197258,-17.26824,-2.632321,0.01773927,1.003204,0.1677455,2.929977,-24.41862,-28.26649,1001.173
8.340992927,-0.5486526,-17.80616,-2.81542,0.01741106,0.9501055,0.1958903,2.929977,-24.41862,-28.26649,1001.173
8.361176967,-1.345231,-18.40384,-2.693354,0.006777442,0.9131189,0.1474884,2.548796,-24.04826,-28.26809,1001.174
8.381361008,-0.8550289,-19.12107,-2.754387,0.03324387,0.9968851,0.1929002,2.548796,-24.04826,-28.26809,1001.174
8.401545048,-1.161405,-19.47968,-2.327155,-0.004960767,0.8848944,0.2398851,1.866113,-24.04788,-27.83167,1001.174
8.421728611,-1.406506,-19.71876,-2.937487,-0.02897939,0.9569605,0.2170173,1.866113,-24.04788,-27.83167,1001.174
8.441912651,-1.10013,-21.45205,-2.99852,-0.0001619682,0.9275171,0.1998483,1.866113,-24.04788,-27.83167,1001.174
8.462096691,-0.5486526,-21.51182,-2.937487,-0.0433205,0.9081072,0.1382176,2.258644,-24.78601,-28.26907,1001.174
8.482280731,-0.2422763,-22.70719,-3.18162,0.03550791,1.009968,0.1474167,2.258644,-24.78601,-28.26907,1001.174
8.499941349,-0.4261021,-22.76696,-3.486786,0.003664107,0.970412,0.1797684,1.502699,-24.41769,-27.39389,1001.174
8.520125389,-0.05845055,-23.36465,-2.571287,0.009850806,0.9772763,0.1808684,1.502699,-24.41769,-27.39389,1001.178
8.540308952,-0.6099278,-23.78303,-3.730919,0.01991934,0.9823039,0.177547,1.502699,-24.41769,-27.39389,1001.178
8.560492992,-0.1810011,-24.56003,-3.608852,0.002037279,0.9855551,0.1649864,1.509116,-24.79009,-26.5155,1001.178
8.580677032,-0.9775794,-25.03818,-3.730919,-0.002917702,0.9958447,0.194879,1.509116,-24.79009,-26.5155,1001.178
8.600861072,-0.7937536,-25.33702,-3.669885,0.02127237,0.9514195,0.1180568,1.147346,-25.15836,-26.51685,1001.178
8.621044636,-0.8550289,-25.33702,-4.280218,-0.001482434,0.9978309,0.1433381,1.147346,-25.15836,-26.51685,1001.18
8.641228676,-0.8550289,-26.11401,-3.914018,0.009129673,0.9576256,0.1580975,0.7467527,-24.04936,-26.51872,1001.18
8.661412716,-0.4873773,-25.57609,-4.097118,-0.02318952,0.9582741,0.1421005,0.7467527,-24.04936,-26.51872,1001.178
8.681596756,-0.3035516,-25.81517,-3.425753,0.01465964,0.9791436,0.1463506,0.7467527,-24.04936,-26.51872,1001.178
8.701780796,-0.9775794,-25.21748,-3.608852,-0.0077276,0.9561827,0.1318181,0.7758703,-25.15731,-26.51833,1001.178
8.721963882,-0.5486526,-24.7991,-3.791952,0.05248273,1.042352,0.1319753,0.7758703,-25.15731,-26.51833,1001.178
8.742147922,-0.8550289,-23.66349,-4.585384,0.03970662,1.022585,0.1028942,0.7631111,-24.79086,-25.70293,1001.18
8.762331963,-0.8550289,-23.54396,-3.364719,0.01801733,1.060883,0.1173085,0.7631111,-24.79086,-25.70293,1001.18
8.779993057,-0.1810011,-22.58766,-3.18162,-0.04997173,1.018728,0.1623131,0.7631111,-24.79086,-25.70293,1001.18
8.800177097,-0.7937536,-23.24511,-3.669885,-0.01585762,1.02933,0.1702583,0.7728167,-25.16018,-25.7028,1001.18
8.820360661,-1.651607,-23.42442,-3.486786,0.07287795,0.9904723,0.1659528,0.7728167,-25.16018,-25.7028,1001.18
8.840544701,-0.3648268,-21.39228,-3.059553,-0.01049339,0.9859723,0.1041896,0.411046,-25.52844,-25.70415,1001.18
8.860728741,-0.3648268,-21.21297,-3.18162,0.06638026,0.9706086,0.1071789,0.411046,-25.52844,-25.70415,1001.18
8.880912781,-1.10013,-19.47968,-2.754387,-0.01110418,0.9154368,0.1801618,0.411046,-25.52844,-25.70415,1001.18
8.901096821,0.1253752,-18.46361,-2.81542,0.008718967,0.9905728,0.2064357,-0.3416109,-25.15702,-25.70724,1001.186
8.921279907,0.2479257,-17.98546,-2.937487,-0.006597972,0.9823496,0.1333074,-0.3416109,-25.15702,-25.70724,1001.186
8.941463947,0.1866505,-16.90962,-2.510254,0.0209708,1.016552,0.09696329,-1.408528,-24.78914,-24.4569,1001.184
8.961647511,0.4317515,-14.99702,-2.99852,-0.02181705,1.203608,0.1279771,-1.408528,-24.78914,-24.4569,1001.184
8.981831551,-0.6712031,-15.05679,-2.144055,-0.009585598,1.029674,0.1449534,-1.408528,-24.78914,-24.4569,1001.186
9.002015591,-0.4261021,-13.92118,-2.327155,0.007177616,0.9199167,0.1466492,-1.027348,-25.15951,-24.45529,1001.186
9.022199631,-0.6099278,-13.08442,-1.899922,-0.003415264,0.9974789,0.1759353,-1.027348,-25.15951,-24.45529,1001.184
9.042383671,-0.2422763,-11.53043,-1.960955,0.01100032,1.002178,0.1633558,-1.017642,-25.52882,-24.45516,1001.184
9.060044765,-0.8550289,-11.82928,-1.47269,0.01510432,1.02151,0.1744373,-1.017642,-25.52882,-24.45516,1001.186
9.080228806,0.4317515,-11.11205,-1.716822,0.02810888,1.063935,0.1178406,-1.017642,-25.52882,-24.45516,1001.186
9.100411892,-0.6712031,-10.69367,-1.411656,0.03635722,1.05756,0.2354564,-1.762238,-25.52827,-24.01899,1001.184
9.120595932,0.3704762,-9.498297,-1.960955,-0.01017485,1.039241,0.1076764,-1.762238,-25.52827,-24.01899,1001.184
9.140779972,-0.4261021,-9.558066,-1.350623,-0.003946998,0.9624593,0.1397221,-1.390761,-25.52932,-24.01751,1001.184
9.160963535,-1.283956,-9.139685,-1.10649,-0.0103894,0.976147,0.1667647,-1.390761,-25.52932,-24.01751,1001.184
9.181147575,0.4930267,-8.840841,-1.594756,-0.01153721,1.032617,0.08954359,-1.771943,-25.15895,-24.01912,1001.182
9.201331615,0.1253752,-8.004078,-0.9844238,0.002721043,1.049519,0.1166194,-1.771943,-25.15895,-24.01912,1001.182
9.221515656,-0.1810011,-7.167316,-1.411656,0.0219207,0.9776563,0.1117629,-1.771943,-25.15895,-24.01912,1001.182
9.241699696,-0.7937536,-6.748935,-0.8623573,0.002998098,1.025884,0.1550782,-1.384344,-25.90172,-23.13912,1001.182
9.261883259,-0.8550289,-6.151248,-0.9844238,0.001043092,0.9889007,0.1193149,-1.384344,-25.90172,-23.13912,1001.182
9.282067299,-0.3035516,-5.792635,-0.9233905,0.006456974,0.9795981,0.1371265,-1.746114,-26.26999,-23.14047,1001.182
9.302251339,-0.05845055,-4.896103,-0.7402909,0.003441451,0.9898182,0.1280881,-1.746114,-26.26999,-23.14047,1001.182
9.319911957,-0.1197258,-4.537491,-0.8623573,-0.008805143,1.004888,0.1537068,-1.746114,-26.26999,-23.14047,1001.182
9.340095997,-0.2422763,-4.298416,-0.6182244,-0.0107305,1.005153,0.1240331,-2.133713,-25.52721,-24.02047,1001.186
9.360279560,-0.2422763,-3.939804,-0.8623573,0.007421619,1.019274,0.144236,-2.133713,-25.52721,-24.02047,1001.186
9.380463600,-0.4873773,-4.238647,-0.6182244,0.01412911,0.9829003,0.1576172,-1.775231,-25.16204,-23.14086,1001.186
9.400647640,-0.1810011,-4.417953,-0.6182244,0.01843607,1.025691,0.1487261,-1.775231,-25.16204,-23.14086,1001.186
9.420831680,-0.9775794,-4.955872,-0.496158,0.01179144,0.8970428,0.1637068,-1.775231,-25.16204,-23.14086,1001.186
9.441015720,0.06409996,-5.254716,-0.7402909,0.008393263,1.017943,0.182162,-2.497128,-25.89702,-23.58269,1001.186
9.461199283,-0.1197258,-5.673097,-0.8623573,-0.002831971,0.9893583,0.1650688,-2.497128,-25.89702,-23.58269,1001.188
9.481383324,-0.05845055,-5.792635,-0.8623573,0.01894002,0.9839694,0.1547118,-1.763882,-25.52981,-23.57986,1001.188
9.501567364,-0.3648268,-5.971941,-0.9233905,0.0136689,0.980835,0.1697417,-1.763882,-25.52981,-23.57986,1001.188
9.521751404,-0.1810011,-5.852404,-0.9844238,0.001572202,1.023703,0.1774201,-1.763882,-25.52981,-23.57986,1001.188
9.541934967,-0.1810011,-6.748935,-1.10649,-0.008702735,0.9968708,0.1316516,-1.757229,-25.90199,-22.76421,1001.19
9.562119007,-0.5486526,-7.286854,-0.9844238,0.02051129,0.9342839,0.1347493,-1.757229,-25.90199,-22.76421,1001.19
9.582303047,-0.3648268,-8.123616,-1.045457,0.02745498,0.9579458,0.1532111,-1.75582,-25.90067,-23.1406,1001.188
9.599963665,-0.9163041,-8.42246,-1.350623,0.008552221,0.966229,0.1203149,-1.75582,-25.90067,-23.1406,1001.188
9.620147705,-0.3035516,-9.139685,-1.28959,0.0299606,0.988955,0.2058859,-1.75582,-25.90067,-23.1406,1001.188
9.640331745,-0.1810011,-9.259222,-1.167523,0.02407339,0.9583704,0.1541976,-2.509886,-25.53058,-22.76729,1001.188
9.660515308,-0.8550289,-9.318991,-1.716822,-0.02160189,0.9863228,0.1499521,-2.509886,-25.53058,-22.76729,1001.188
9.680699348,-0.4873773,-10.15575,-1.28959,0.05443943,0.959568,0.1765598,-2.148115,-25.16232,-22.76594,1001.186
9.700883388,-0.3648268,-10.15575,-1.777856,0.0121716,0.985356,0.1513431,-2.148115,-25.16232,-22.76594,1001.186
9.721067429,-0.05845055,-10.15575,-1.777856,-0.006681776,0.9889953,0.1470635,-2.148115,-25.16232,-22.76594,1001.19
9.741250992,-0.4261021,-9.737372,-1.411656,0.02198562,0.9704184,0.2065039,-2.508477,-25.52925,-23.14369,1001.19
9.761435032,-0.6099278,-9.378759,-1.594756,0.00499662,0.980386,0.1532016,-2.508477,-25.52925,-23.14369,1001.184
9.781619072,-0.6099278,-9.797141,-1.167523,0.006593974,0.9280083,0.1604346,-2.13841,-25.53163,-22.76581,1001.184
9.801803112,0.002824706,-8.781072,-1.594756,-0.001136014,1.008911,0.150369,-2.13841,-25.53163,-22.76581,1001.186
9.821987152,-0.6099278,-8.960379,-0.9844238,-0.005776196,0.9541919,0.1400478,-2.871656,-25.89884,-22.76864,1001.186
9.842170715,-0.1810011,-8.482228,-1.533723,0.009098263,1.000492,0.1351032,-2.871656,-25.89884,-22.76864,1001.186
9.862354755,-0.1197258,-8.362691,-1.28959,0.01440685,0.9999368,0.1501686,-2.871656,-25.89884,-22.76864,1001.186
9.880015373,-0.1197258,-7.94431,-1.28959,-0.001668091,1.013509,0.1256449,-2.503469,-25.90298,-21.8889,1001.184
9.900199413,-0.2422763,-7.884541,-1.228557,-0.00565728,0.9842771,0.1357771,-2.503469,-25.90298,-21.8889,1001.184
9.920383453,-0.1197258,-7.107547,-0.9844238,0.01807838,1.015619,0.1378224,-2.865238,-26.27124,-21.89025,1001.184
9.940567017,-0.1810011,-7.047779,-0.9844238,0.01721551,1.00752,0.1225792,-2.865238,-26.27124,-21.89025,1001.184
9.960751057,-0.4873773,-6.569629,-1.167523,0.00603338,0.9747425,0.1375176,-2.865238,-26.27124,-21.89025,1001.18
9.980935097,-0.4261021,-6.868473,-1.045457,0.00427404,1.000261,0.1511631,-3.254481,-25.53002,-22.33112,1001.18
10.001119137,-0.1810011,-6.270785,-1.10649,0.01202087,0.9981037,0.1360248,-3.254481,-25.53002,-22.33112,1001.18
10.021303177,-0.05845055,-6.569629,-0.9233905,0.00769742,0.9965042,0.1442715,-3.243132,-25.89779,-22.77012,1001.18
10.041486740,-0.1810011,-6.689166,-0.9233905,0.0014407,0.9954859,0.1398813,-3.243132,-25.89779,-22.77012,1001.18
10.061670780,-0.3035516,-6.808703,-0.9844238,0.01316148,1.023239,0.1438194,-3.243132,-25.89779,-22.77012,1001.18
10.081854343,-0.4261021,-7.227085,-1.045457,-0.00820319,0.9954007,0.1340547,-3.256125,-25.53157,-21.89199,1001.18
10.102037907,-0.6099278,-7.286854,-1.10649,0.009565589,0.9615607,0.1528223,-3.256125,-25.53157,-21.89199,1001.18
10.122221947,-0.3648268,-7.94431,-0.8623573,0.009660212,0.9935156,0.155401,-2.513174,-25.53367,-21.88903,1001.186
10.139883041,-0.7324783,-8.42246,-1.167523,0.01467138,0.9781749,0.1463314,-2.513174,-25.53367,-21.88903,1001.186
10.160067081,-0.6712031,-9.079916,-1.228557,-0.005160948,0.9825416,0.1649373,-2.513174,-25.53367,-21.88903,1001.177
10.180251122,-0.5486526,-9.617835,-1.350623,0.001017777,0.9897164,0.1835605,-2.865238,-26.27124,-21.89025,1001.177
10.200435162,-0.3035516,-10.21552,-1.47269,0.02499946,1.001644,0.1404551,-2.865238,-26.27124,-21.89025,1001.177
10.220619202,-0.4261021,-10.33506,-1.594756,0.02443126,1.008104,0.1722119,-2.876589,-25.90348,-21.45125,1001.177
10.240802765,-0.2422763,-10.93275,-1.533723,0.002304944,1.002728,0.1925747,-2.876589,-25.90348,-21.45125,1001.18
10.260986805,-0.3035516,-11.70974,-1.655789,-0.0004114205,0.9882323,0.1845064,-2.876589,-25.90348,-21.45125,1001.18
10.281169891,-0.8550289,-12.42697,-1.777856,-0.01370121,0.9707063,0.1729875,-3.609834,-26.27069,-21.45408,1001.18
10.301353931,-0.5486526,-13.20396,-2.083022,0.02004043,0.9719539,0.1953457,-3.609834,-26.27069,-21.45408,1001.18
10.321537971,-0.7324783,-13.56257,-1.777856,-0.003320371,0.9501646,0.1589413,-3.601538,-26.64133,-21.07755,1001.18
10.341722011,-0.3648268,-14.16026,-1.960955,0.00985683,1.015481,0.2370954,-3.601538,-26.64133,-21.07755,1001.18
10.361906051,-0.6712031,-15.05679,-1.960955,0.01681633,0.9988657,0.2129136,-3.249474,-25.90375,-21.07633,1001.174
10.382089615,-1.10013,-15.05679,-2.266121,-0.0206128,1.062818,0.2064488,-3.249474,-25.90375,-21.07633,1001.174
10.402273655,-0.7324783,-15.35564,-1.777856,0.03732507,0.9775941,0.2387382,-3.249474,-25.90375,-21.07633,1001.173
10.419935226,-0.6099278,-15.35564,-1.838889,0.02868186,0.9360244,0.1668865,-3.611243,-26.27201,-21.07768,1001.173
10.440118790,-1.038855,-15.17633,-2.449221,0.02800456,0.9915316,0.1874495,-3.611243,-26.27201,-21.07768,1001.178
10.460302830,-0.7937536,-15.83379,-2.266121,0.01998069,0.9767104,0.2041985,-3.986007,-26.27405,-20.2009,1001.178
10.480486870,-0.6712031,-15.47517,-2.571287,-0.003721646,0.9829218,0.1775939,-3.986007,-26.27405,-20.2009,1001.178
10.500669956,-0.1810011,-16.43147,-2.388188,0.02473146,1.022149,0.2221213,-3.986007,-26.27405,-20.2009,1001.178
10.520853996,-0.4261021,-15.65448,-2.754387,-0.03044213,0.9991361,0.1638431,-3.994069,-25.90319,-20.64016,1001.18
10.541038036,-0.8550289,-15.95332,-2.327155,0.005807854,0.9523265,0.1988708,-3.994069,-25.90319,-20.64016,1001.18
10.561222076,-0.6099278,-15.77402,-2.510254,0.006733926,0.9956001,0.1851283,-3.976301,-26.64337,-20.20077,1001.178
10.581405640,-0.5486526,-16.13263,-2.144055,-0.02893086,0.953216,0.2038053,-3.976301,-26.64337,-20.20077,1001.178
10.601589680,-0.1197258,-16.13263,-2.937487,-0.02399529,0.8678473,0.0249909,-3.976301,-26.64337,-20.20077,1001.178
10.621773720,-0.4261021,-17.26824,-2.327155,-0.0003819175,1.026439,0.1429295,-4.30692,-25.90541,-19.76313,1001.178
10.641957760,-1.038855,-17.02916,-2.266121,-0.002794021,0.9470323,0.1335761,-4.30692,-25.90541,-19.76313,1001.178
10.662141323,-1.774158,-19.24061,-3.059553,0.1093827,0.8040981,0.1544252,-3.98906,-26.27692,-19.38537,1001.178
10.682325363,-0.9163041,-20.25668,-2.937487,-0.04322427,0.9392254,0.1763005,-3.98906,-26.27692,-19.38537,1001.178
10.699986935,-0.3035516,-20.73483,-2.571287,0.01576101,0.9285305,0.1215046,-3.98906,-26.27692,-19.38537,1001.178
10.720170021,-0.5486526,-21.81066,-3.608852,0.03218033,1.085423,0.1557271,-4.300267,-26.27759,-18.94748,1001.178
10.740354061,-1.406506,-22.76696,-3.303686,0.009324213,0.9842673,0.01264851,-4.300267,-26.27759,-18.94748,1001.182
10.760538101,-0.6099278,-22.40835,-3.852985,0.08608465,0.9363804,0.1191238,-4.309974,-25.90828,-18.94761,1001.182
10.780721664,-1.835433,-23.24511,-3.303686,-0.04213354,0.9679942,0.2084965,-4.309974,-25.90828,-18.94761,1001.182
10.800905704,-0.4873773,-22.64742,-3.059553,0.02820319,0.894726,0.2264066,-4.309974,-25.90828,-18.94761,1001.182
10.821089745,-0.8550289,-22.28881,-3.18162,0.002758517,0.9655687,0.1782141,-4.657239,-26.95671,-18.07046,1001.18
10.841273785,-1.161405,-21.75089,-3.242653,-0.01642416,0.9953112,0.2284628,-4.657239,-26.95671,-18.07046,1001.18
10.861457348,-0.4261021,-22.82673,-3.669885,0.02153007,1.049,0.1482097,-5.047917,-26.2799,-17.69578,1001.18
10.881641388,-0.9163041,-22.10951,-2.876454,0.003646166,0.9331613,0.1250201,-5.047917,-26.2799,-17.69578,1001.18
10.901825428,0.002824706,-20.55552,-3.18162,0.004528709,1.019269,0.1403474,-4.666738,-26.65027,-17.69417,1001.18
10.922009468,-0.3035516,-19.47968,-3.303686,-0.022206,1.037217,0.09840883,-4.666738,-26.65027,-17.69417,1001.18
10.942193508,-0.1810011,-18.28431,-2.693354,0.04854094,0.9696373,0.1295688,-4.666738,-26.65027,-17.69417,1001.179
10.962377071,-0.1810011,-17.20847,-2.754387,0.02602662,1.035823,0.1644862,-4.678086,-26.2825,-17.25517,1001.179
10.980037689,-0.3648268,-16.67055,-2.266121,-0.04204859,0.9624121,0.136371,-4.678086,-26.2825,-17.25517,1001.181
11.000221729,-0.05845055,-15.83379,-2.693354,0.001819033,1.004356,0.1254587,-5.035056,-26.96162,-16.37815,1001.181
11.020405769,-0.9163041,-15.29587,-2.205088,-0.01375827,0.9756849,0.1594617,-5.035056,-26.96162,-16.37815,1001.179
11.040589809,-0.3648268,-14.81772,-2.449221,0.02320112,0.9910804,0.128084,-5.035056,-26.96162,-16.37815,1001.179
11.060773373,0.1253752,-13.98095,-2.144055,-0.01599253,1.041447,0.1208664,-5.778008,-26.95951,-16.38111,1001.179
11.080957413,-0.4873773,-13.5028,-2.083022,0.01166507,0.9475721,0.1496229,-5.778008,-26.95951,-16.38111,1001.179
11.101141453,-0.2422763,-13.56257,-1.899922,0.03086746,1.034518,0.1566679,-5.41462,-26.6528,-16.37974,1001.179
11.121325493,-0.1810011,-12.48674,-1.899922,0.006607663,1.006492,0.1615013,-5.41462,-26.6528,-16.37974,1001.179
11.141509533,-0.4261021,-11.88905,-1.716822,-0.01526509,0.9417115,0.1140256,-5.41462,-26.6528,-16.37974,1001.179
11.161693096,-0.9163041,-11.53043,-1.594756,0.0109737,0.9651802,0.1319687,-5.41462,-26.6528,-16.37974,1001.179
11.181877136,-1.283956,-11.4109,-1.716822,-0.02964618,0.9330762,0.1815113,-5.41462,-26.6528,-16.37974,1001.183
11.202061176,-0.8550289,-11.23159,-1.533723,-0.01525646,0.9791617,0.1974865,-5.779653,-26.96106,-15.94198,1001.183
11.222245216,-0.4261021,-11.05229,-1.594756,0.003642741,1.01217,0.1708632,-5.779653,-26.96106,-15.94198,1001.183
11.239905834,-0.7324783,-11.17182,-1.47269,-0.00862772,0.990468,0.1422297,-5.779653,-26.96106,-15.94198,1001.183
11.260089397,-0.7937536,-11.23159,-1.533723,-0.002104094,1.008597,0.1805326,-5.78106,-26.96238,-15.56558,1001.183
11.280273438,-0.4873773,-11.53043,-1.716822,0.004475583,0.9839575,0.1342962,-5.78106,-26.96238,-15.56558,1001.183
11.300457478,-0.6712031,-11.4109,-1.411656,0.009437223,0.9722792,0.146709,-5.411227,-26.96498,-15.12497,1001.183
11.320641517,-0.05845055,-11.17182,-1.411656,0.0006023004,0.9855319,0.1163293,-5.411227,-26.96498,-15.12497,1001.183
11.340825558,-0.6712031,-10.81321,-1.28959,-0.006164984,0.9463965,0.1437867,-5.411227,-26.96498,-15.12497,1001.183
11.361009121,-0.4873773,-10.15575,-1.228557,-0.0001712641,1.008949,0.1479355,-5.78106,-26.96238,-15.56558,1001.183
11.381193161,-0.5486526,-9.318991,-1.10649,0.005813062,0.9924028,0.1641431,-5.78106,-26.96238,-15.56558,1001.183
11.401377201,-0.3035516,-8.362691,-1.167523,-0.0001389503,0.9671268,0.1145064,-6.15418,-26.96288,-15.12793,1001.183
11.421561241,0.06409996,-7.94431,-1.167523,-0.005209567,0.9872483,0.1299963,-6.15418,-26.96288,-15.12793,1001.181
11.441744804,0.002824706,-7.227085,-1.167523,0.03280915,0.9940184,0.1393196,-6.15418,-26.96288,-15.12793,1001.181
11.461928844,-0.3035516,-6.390322,-0.8013241,0.02534411,0.972932,0.1535108,-5.784348,-26.96547,-14.68732,1001.185
11.482112884,-0.1197258,-5.434022,-0.9233905,-0.006321081,1.000286,0.08403017,-5.784348,-26.96547,-14.68732,1001.185
11.502296924,0.002824706,-5.493791,-0.6792576,-0.006536911,0.976732,0.1623914,-6.134768,-27.7015,-15.12767,1001.185
11.519957542,-0.2422763,-5.07541,-0.7402909,-0.01289823,0.9845189,0.149417,-6.134768,-27.7015,-15.12767,1001.185
11.540141582,-0.3035516,-5.314485,-0.4351248,-0.003285728,0.9868569,0.1723187,-6.134768,-27.7015,-15.12767,1001.187
11.560325146,-0.4261021,-5.434022,-0.8013241,-0.001547415,0.9634783,0.138279,-6.155824,-26.96442,-14.6888,1001.187
11.580509186,-0.2422763,-4.836335,-0.6182244,0.01801898,0.9807578,0.1351862,-6.155824,-26.96442,-14.6888,1001.187
11.600693226,-0.1197258,-3.939804,-0.6182244,0.01706033,0.9802543,0.1356642,-6.147761,-27.33528,-14.24954,1001.187
11.620877266,-0.1810011,-3.521422,-0.3740916,0.005146039,0.9684992,0.1305832,-6.147761,-27.33528,-14.24954,1001.191
11.641060829,0.002824706,-2.624891,-0.4351248,0.008355964,0.9820001,0.1420371,-5.784348,-26.96547,-14.68732,1001.191
11.661244869,0.1253752,-2.624891,-0.5571912,0.004864897,0.9917963,0.1261788,-5.784348,-26.96547,-14.68732,1001.191
11.681428909,-0.05845055,-1.907666,-0.2520251,0.005511116,0.9782127,0.1288285,-5.784348,-26.96547,-14.68732,1001.191
11.701612949,-0.1810011,-1.72836,-0.2520251,0.01784871,0.9947991,0.1359509,-5.042806,-26.9689,-14.30796,1001.191
11.721796989,-0.1810011,-1.25021,-0.2520251,0.01536509,1.000407,0.153096,-5.042806,-26.9689,-14.30796,1001.191
11.741980553,0.06409996,-1.070903,-0.1909919,0.02369886,0.9894606,0.1455684,-6.126706,-28.07236,-14.68841,1001.191
11.762164116,0.06409996,-1.070903,-0.06892546,0.004302335,0.9977527,0.159872,-6.126706,-28.07236,-14.68841,1001.191
11.782347679,0.2479257,-1.25021,-0.1909919,0.003326488,0.9987361,0.1569734,-6.126706,-28.07236,-14.68841,1001.191
11.800009251,0.1253752,-1.549053,-0.007892244,0.008488156,0.9706284,0.165168,-6.138057,-27.70459,-14.24941,1001.191
11.820193291,0.1866505,-1.788128,-0.2520251,0.01311618,0.9866353,0.1703439,-6.138057,-27.70459,-14.24941,1001.191
11.840376854,0.1866505,-1.967435,-0.3740916,0.0246472,0.9900815,0.1820733,-5.404576,-27.33716,-14.30931,1001.191
11.860560894,0.1866505,-2.20651,-0.3130583,0.0160375,0.9841405,0.1819683,-5.404576,-27.33716,-14.30931,1001.191
11.880744934,0.06409996,-2.505353,-0.4351248,0.01328411,0.9724007,0.1890388,-5.404576,-27.33716,-14.30931,1001.193
11.900928974,-0.1197258,-3.043272,-0.3130583,0.008602632,1.000347,0.1978707,-6.137822,-27.70437,-14.31214,1001.193
11.921113014,0.1253752,-2.983504,-0.5571912,0.01818435,0.966311,0.1752867,-6.137822,-27.70437,-14.31214,1001.193
11.941296577,-0.3035516,-3.222579,-0.4351248,0.006091694,0.9688981,0.1894667,-6.147527,-27.33506,-14.31227,1001.193
11.961480141,0.002824706,-3.521422,-0.6182244,0.01465933,1.017794,0.2064791,-6.147527,-27.33506,-14.31227,1001.193
11.981663704,0.002824706,-3.342116,-0.4351248,0.02015512,1.002659,0.1774629,-6.147527,-27.33506,-14.31227,1001.193
12.001847744,-0.1810011,-3.103041,-0.5571912,0.0164983,0.9862541,0.164979,-6.139466,-27.70592,-13.87301,1001.195
12.022031784,-0.05845055,-2.744429,-0.5571912,0.01315867,0.9833605,0.158601,-6.139466,-27.70592,-13.87301,1001.195
12.042215824,-0.05845055,-3.222579,-0.3740916,-6.806914E-05,1.000028,0.1681954,-6.517592,-27.33268,-14.69015,1001.195
12.059876919,-0.05845055,-3.222579,-0.3740916,0.009104853,0.959452,0.1693252,-6.517592,-27.33268,-14.69015,1001.195
12.080060959,-0.3648268,-3.401885,-0.4351248,0.01138226,0.9697621,0.2079663,-6.517592,-27.33268,-14.69015,1001.195
12.100244999,0.2479257,-3.282347,-0.5571912,0.002153323,0.9757569,0.1759838,-5.767991,-27.70697,-13.87153,1001.195
12.120429039,-0.1810011,-2.983504,-0.496158,0.006041732,0.9734938,0.1657149,-5.767991,-27.70697,-13.87153,1001.195
12.140612602,-0.3035516,-3.222579,-0.4351248,0.006869972,0.9845469,0.1761508,-5.766347,-27.70543,-14.31066,1001.195
12.160796642,0.002824706,-2.804197,-0.3740916,0.008732457,0.9897488,0.1918218,-5.766347,-27.70543,-14.31066,1001.198
12.180979729,0.4317515,-2.804197,-0.3740916,0.01565629,1.015647,0.1801595,-6.512586,-27.70641,-13.43536,1001.198
12.201163769,-0.3648268,-2.863966,-0.3740916,-0.01094846,0.982393,0.1712684,-6.512586,-27.70641,-13.43536,1001.198
12.221347809,-0.3648268,-3.16281,-0.5571912,0.008963579,0.9710427,0.1729609,-6.512586,-27.70641,-13.43536,1001.198
12.241531849,-0.3035516,-3.461653,-0.496158,0.02264714,0.9561605,0.1794585,-6.520646,-27.33555,-13.87462,1001.198
12.261715889,-0.05845055,-3.581191,-0.3130583,0.004294715,0.9980922,0.1744763,-6.520646,-27.33555,-13.87462,1001.198
12.281899452,-0.2422763,-3.760497,-0.5571912,0.006589107,0.9682214,0.1607439,-6.519002,-27.33401,-14.31375,1001.198
12.302083492,-0.1810011,-4.238647,-0.6792576,-0.002014711,1.001443,0.1691994,-6.519002,-27.33401,-14.31375,1001.198
12.322267532,-0.3035516,-4.836335,-0.3740916,0.01529241,1.005063,0.2208239,-6.519002,-27.33401,-14.31375,1001.2
12.339928627,0.002824706,-5.135179,-0.6182244,0.005516316,0.9767033,0.1832963,-6.150815,-27.33815,-13.43401,1001.2
12.360112667,-0.1810011,-5.852404,-0.496158,-0.0167451,0.9437835,0.1471567,-6.150815,-27.33815,-13.43401,1001.202
12.380296707,-0.5486526,-6.569629,-0.7402909,0.007272025,1.031146,0.1683139,-5.769635,-27.70852,-13.4324,1001.202
12.400480747,-0.3648268,-7.406391,-0.7402909,0.00744101,1.016998,0.178252,-5.769635,-27.70852,-13.4324,1001.202
12.420663833,-0.4261021,-7.346622,-0.8623573,0.05508718,0.9857565,0.1751308,-5.769635,-27.70852,-13.4324,1001.202
12.440847874,-0.1810011,-6.748935,-0.9233905,0.01892581,0.9450887,0.1665936,-5.758285,-28.07628,-13.8714,1001.204
12.461031914,-0.4261021,-7.46616,-0.9233905,-0.01702834,0.9669068,0.160266,-5.758285,-28.07628,-13.8714,1001.204
12.481215477,0.002824706,-7.406391,-1.045457,0.0007284094,1.053918,0.1585559,-5.767991,-27.70697,-13.87153,1001.204
12.501399517,0.1866505,-7.884541,-0.9844238,-0.01214054,1.001374,0.160941,-5.767991,-27.70697,-13.87153,1001.204
12.521583557,-0.3648268,-7.824772,-0.8013241,0.03530357,0.9061326,0.2105645,-5.767991,-27.70697,-13.87153,1001.204
12.541767597,0.1866505,-7.884541,-0.7402909,0.01487959,1.000129,0.1803401,-6.142755,-27.70901,-12.99475,1001.204
12.561951160,-0.2422763,-8.183385,-0.9844238,-0.007424885,1.010082,0.1693784,-6.142755,-27.70901,-12.99475,1001.204
12.582135200,-0.7324783,-9.378759,-1.045457,-0.006394314,1.003927,0.2052624,-5.761573,-28.07937,-12.99314,1001.204
12.602319240,-0.3035516,-9.318991,-1.350623,0.03718899,0.9896144,0.1990762,-5.761573,-28.07937,-12.99314,1001.204
12.619979858,-0.3035516,-10.21552,-1.045457,0.01879395,0.9555175,0.1896698,-5.761573,-28.07937,-12.99314,1001.204
12.640163898,-0.9775794,-10.6339,-1.411656,0.01464619,1.018647,0.2181741,-6.144399,-27.71055,-12.55562,1001.204
12.660347938,-0.2422763,-11.23159,-1.533723,0.01681436,0.9600267,0.1717582,-6.144399,-27.71055,-12.55562,1001.204
12.680531502,-0.3648268,-11.94882,-1.533723,0.03636304,1.018396,0.1782372,-5.771279,-27.71006,-12.99327,1001.204
12.700715542,-0.4261021,-12.12812,-1.655789,-0.00267671,0.9760153,0.1915667,-5.771279,-27.71006,-12.99327,1001.204
12.720899582,0.2479257,-12.90512,-1.716822,0.01306557,0.9931169,0.05417804,-6.136102,-28.08119,-12.1791,1001.202
12.741083622,-0.4261021,-12.5465,-1.899922,0.03620519,0.9522335,0.1560047,-6.136102,-28.08119,-12.1791,1001.202
12.761267185,0.1866505,-12.18789,-1.716822,0.03924465,1.020375,0.1296134,-6.136102,-28.08119,-12.1791,1001.204
12.781451225,0.4317515,-11.5902,-1.716822,0.006010673,1.016389,0.1398017,-6.137746,-28.08274,-11.73997,1001.204
12.801635265,-0.2422763,-11.53043,-1.655789,0.001304195,0.928179,0.08648457,-6.137746,-28.08274,-11.73997,1001.202
12.821819305,-0.4873773,-12.48674,-2.327155,0.02384521,0.8583828,0.1225373,-6.507577,-28.08014,-12.18057,1001.202
12.842003345,0.1253752,-12.5465,-2.021988,-0.02642282,0.9853951,0.1874079,-6.507577,-28.08014,-12.18057,1001.202
12.862186909,0.1866505,-12.42697,-1.655789,-0.004244377,0.9863535,0.1727968,-6.507577,-28.08014,-12.18057,1001.202
12.879847527,0.002824706,-12.3672,-2.205088,0.01239129,1.00729,0.138639,-6.518928,-27.71237,-11.74157,1001.202
12.900031567,-0.1810011,-11.29136,-1.716822,0.03864121,0.9108011,0.1357177,-6.518928,-27.71237,-11.74157,1001.2
12.920215607,-0.5486526,-11.17182,-2.083022,0.02500459,0.9604831,0.1868394,-6.136102,-28.08119,-12.1791,1001.2
12.940399647,0.309201,-10.99252,-1.411656,-0.009315046,0.9281487,0.122507,-6.136102,-28.08119,-12.1791,1001.2
12.960583210,0.002824706,-10.87298,-1.533723,-0.006422211,0.966823,0.1845781,-6.136102,-28.08119,-12.1791,1001.2
12.980767250,-0.6099278,-10.81321,-1.777856,-0.02831591,0.9834806,0.1333617,-6.129685,-28.4536,-11.30071,1001.2
13.000951290,0.002824706,-11.11205,-1.838889,0.01151817,0.9993131,0.1598923,-6.129685,-28.4536,-11.30071,1001.2
13.021135330,-0.3035516,-10.51437,-1.533723,0.01456538,0.9868643,0.1494231,-6.512509,-28.08477,-10.86318,1001.2
13.041319370,0.2479257,-10.51437,-1.655789,0.01821814,1.003903,0.1468354,-6.512509,-28.08477,-10.86318,1001.2
13.061502934,-0.4261021,-9.259222,-1.28959,0.03668634,0.9531209,0.1161215,-6.512509,-28.08477,-10.86318,1001.202
13.081686974,-0.6099278,-8.960379,-1.533723,0.02137214,1.021507,0.1841598,-6.522216,-27.71546,-10.86331,1001.202
13.101871014,-0.05845055,-9.020147,-1.28959,0.001535591,0.9481717,0.1228873,-6.522216,-27.71546,-10.86331,1001.202
13.122055054,-0.4261021,-8.243154,-1.47269,-0.00615522,0.9849104,0.1688783,-6.504214,-28.45541,-10.48666,1001.202
13.142238617,-0.3648268,-7.645466,-1.045457,0.01988246,0.9860418,0.1425868,-6.504214,-28.45541,-10.48666,1001.202
13.159899235,0.1253752,-6.98801,-1.28959,0.0169774,0.9869725,0.1421229,-6.504214,-28.45541,-10.48666,1001.202
13.180083275,0.1866505,-6.390322,-1.045457,0.002278495,0.9260982,0.151158,-6.513919,-28.0861,-10.48679,1001.202
13.200267315,-0.3035516,-6.211016,-0.9233905,-0.01135965,0.9775938,0.1171629,-6.513919,-28.0861,-10.48679,1001.202
13.220451355,-0.2422763,-5.971941,-0.6792576,0.009147583,0.9958435,0.1642063,-6.896745,-27.71728,-10.04926,1001.206
13.240635395,0.1253752,-5.732866,-0.8013241,0.001865871,1.000472,0.1263549,-6.896745,-27.71728,-10.04926,1001.206
13.260818958,-0.3648268,-6.50986,-0.496158,-0.006826377,1.000311,0.1784292,-6.896745,-27.71728,-10.04926,1001.204
13.281002998,0.06409996,-5.732866,-0.9233905,0.02960312,0.9798692,0.1443967,-6.513919,-28.0861,-10.48679,1001.204
13.301187038,-0.9775794,-5.792635,-0.9233905,0.03159085,1.014711,0.1518956,-6.513919,-28.0861,-10.48679,1001.206
13.321371078,-0.4873773,-5.314485,-0.5571912,0.0144707,0.9549044,0.1473309,-6.523625,-27.71679,-10.48691,1001.206
13.341554642,0.06409996,-5.314485,-0.8013241,-0.02210604,0.9487365,0.1282857,-6.523625,-27.71679,-10.48691,1001.204
13.361738682,-0.3648268,-5.792635,-0.8013241,-0.02284386,0.969291,0.1554558,-6.517207,-28.08919,-9.608527,1001.204
13.381922722,-0.3035516,-5.613328,-0.7402909,-0.002095725,0.9686735,0.1510339,-6.517207,-28.08919,-9.608527,1001.204
13.402106762,-0.5486526,-5.613328,-0.9233905,0.01132772,0.9749483,0.1735213,-6.517207,-28.08919,-9.608527,1001.204
13.422290802,-0.5486526,-5.015641,-0.6792576,0.02476412,0.980356,0.1857733,-6.877334,-28.45591,-10.04901,1001.204
13.439951420,-0.5486526,-4.776566,-0.496158,0.01945054,0.981468,0.1634201,-6.877334,-28.45591,-10.04901,1001.204
13.460134983,-0.7937536,-3.939804,-0.5571912,0.01529625,0.9657354,0.1801454,-6.505858,-28.45696,-10.04753,1001.206
13.480319023,-0.4261021,-3.521422,-0.3130583,0.005542187,0.9749638,0.1633118,-6.505858,-28.45696,-10.04753,1001.206
13.500503063,0.002824706,-3.043272,-0.3740916,0.002807612,1.002486,0.1200677,-6.505858,-28.45696,-10.04753,1001.206
13.520687103,0.1253752,-2.863966,-0.2520251,1.001316E-05,0.9948481,0.1043499,-6.505858,-28.45696,-10.04753,1001.206
13.540870666,0.1253752,-2.68466,-0.3130583,0.002424607,0.9951687,0.07564408,-6.505858,-28.45696,-10.04753,1001.206
13.561054706,0.554302,-3.342116,-0.3740916,0.02048016,1.017788,0.06925304,-6.870915,-28.82831,-9.170617,1001.206
13.581238747,0.1866505,-3.401885,-0.496158,0.03059133,1.018584,0.1018553,-6.870915,-28.82831,-9.170617,1001.204
13.601422787,-0.2422763,-3.342116,-0.3130583,0.01359309,0.9881422,0.1168485,-6.870915,-28.82831,-9.170617,1001.204
13.621606827,0.002824706,-3.401885,-0.496158,0.008636559,0.9992734,0.1107505,-6.127965,-28.83041,-9.16766,1001.204
13.641790390,-0.05845055,-3.103041,-0.5571912,0.003962399,0.9872089,0.09884045,-6.127965,-28.83041,-9.16766,1001.204
13.661974430,-0.3648268,-3.342116,-0.3130583,0.01318859,0.9809871,0.1536881,-6.48809,-29.19713,-9.608141,1001.202
13.682158470,-0.1810011,-2.923735,-0.3130583,0.04292595,0.9546638,0.1652881,-6.48809,-29.19713,-9.608141,1001.202
13.699819088,-0.1810011,-1.72836,-0.1299587,0.02175901,0.9488826,0.2279744,-6.48809,-29.19713,-9.608141,1001.201
13.720003128,0.002824706,-1.130672,-0.2520251,-0.01302386,0.9538786,0.2096341,-6.505858,-28.45696,-10.04753,1001.201
13.740186691,0.4317515,-0.2341407,0.1141742,-0.01850378,1.009002,0.1640208,-6.505858,-28.45696,-10.04753,1001.201
13.760370731,0.4317515,-1.788128,0.1141742,-0.04777299,0.9984007,0.06556341,-6.869271,-28.82677,-9.609748,1001.201
13.780554771,-0.2422763,-3.999573,-0.496158,0.009912338,1.013283,0.1168649,-6.869271,-28.82677,-9.609748,1001.199
13.800738811,-0.3035516,-5.673097,-0.4351248,0.04521829,1.004884,0.1370835,-6.869271,-28.82677,-9.609748,1001.199
13.820922852,-0.3648268,-5.015641,-0.6182244,0.03760076,0.9964008,0.1505512,-6.867627,-28.82522,-10.04888,1001.199
13.841106415,-0.7324783,-4.896103,-0.6182244,0.02891717,0.9563405,0.1706943,-6.867627,-28.82522,-10.04888,1001.199
13.861290455,-0.3648268,-4.836335,-0.6792576,0.007535036,1.009258,0.1771255,-6.869271,-28.82677,-9.609748,1001.199
13.881474495,0.002824706,-4.776566,-0.5571912,0.03025176,0.9655163,0.1757398,-6.869271,-28.82677,-9.609748,1001.199
13.901658535,-0.05845055,-4.358185,-0.4351248,0.002013977,0.987507,0.1635652,-7.188542,-28.45658,-9.611109,1001.199
13.921842098,-0.2422763,-4.11911,-0.5571912,0.0009121874,0.9984397,0.1832467,-7.188542,-28.45658,-9.611109,1001.203
13.942026138,-0.3648268,-3.939804,-0.496158,0.0005303792,0.9902517,0.1777328,-7.188542,-28.45658,-9.611109,1001.203
13.962210178,-0.3035516,-3.939804,-0.5571912,0.01140385,1.008284,0.1834261,-6.870915,-28.82831,-9.170617,1001.203
13.979870796,0.2479257,-3.64096,-0.3740916,0.02618666,0.9832288,0.1425219,-6.870915,-28.82831,-9.170617,1001.203
14.000054836,-0.3035516,-3.461653,-0.3130583,0.0108819,0.9711645,0.212374,-6.136027,-28.45956,-9.606919,1001.203
14.020238876,0.1253752,-3.103041,-0.3130583,0.01442663,0.9580488,0.1722091,-6.136027,-28.45956,-9.606919,1001.203
14.040422440,-0.3035516,-3.342116,-0.3740916,0.01091535,1.008727,0.1868417,-6.136027,-28.45956,-9.606919,1001.203
14.060606480,-0.05845055,-3.64096,-0.4351248,-0.006259865,1.033358,0.1693507,-6.880622,-28.459,-9.170746,1001.203
14.080790520,-0.3035516,-3.043272,-0.496158,0.01003218,1.00186,0.1940059,-6.880622,-28.459,-9.170746,1001.203
14.100974560,-0.05845055,-3.521422,-0.1299587,0.01322341,1.017694,0.165606,-6.131019,-28.83328,-8.352133,1001.203
14.121158123,-0.2422763,-3.222579,-0.2520251,0.03251925,0.9769447,0.1993188,-6.131019,-28.83328,-8.352133,1001.203
14.141342163,0.6768525,-3.820266,-0.06892546,0.0165002,0.9873805,0.1002852,-6.131019,-28.83328,-8.352133,1001.203
14.161526203,-0.1197258,-3.700729,-0.496158,0.005084231,1.013701,0.1163937,-6.882031,-28.46032,-8.794349,1001.201
14.181710243,-0.1810011,-4.358185,-0.7402909,0.0314584,1.025091,0.1798367,-6.882031,-28.46032,-8.794349,1001.201
14.201894283,0.1253752,-3.461653,-0.5571912,0.01667109,1.012067,0.1518652,-6.851504,-29.56694,-9.170361,1001.199
14.222077847,-0.1197258,-2.68466,-0.4351248,0.04228288,0.9685081,0.1363679,-6.851504,-29.56694,-9.170361,1001.199
14.242261887,0.06409996,-2.744429,-0.2520251,0.01070895,1.026569,0.1463219,-6.851504,-29.56694,-9.170361,1001.199
14.259922504,-0.3035516,-2.804197,-0.3130583,0.002386139,0.9571907,0.1430146,-6.870915,-28.82831,-9.170617,1001.199
14.280106545,-0.4261021,-3.043272,-0.4351248,0.006336272,1.028657,0.1736185,-6.870915,-28.82831,-9.170617,1001.197
14.300290585,-0.2422763,-3.64096,-0.6182244,0.02138367,1.021491,0.1369606,-6.504138,-28.83378,-7.914482,1001.197
14.320474148,0.1866505,-3.880035,-0.496158,0.02121611,0.9951406,0.1554162,-6.504138,-28.83378,-7.914482,1001.199
14.340658188,0.002824706,-3.521422,-0.6182244,0.01639643,0.9556395,0.1249597,-6.504138,-28.83378,-7.914482,1001.199
14.360842228,-0.4261021,-2.68466,-0.4351248,0.01414783,0.981539,0.1483451,-6.50085,-28.83069,-8.792742,1001.195
14.381026268,-0.4873773,-2.086972,-0.1909919,0.007225285,0.9557465,0.1493046,-6.50085,-28.83069,-8.792742,1001.195
14.401209831,-0.1810011,-2.266279,-0.2520251,-0.01176638,1.010869,0.1324197,-6.862618,-29.19895,-8.794091,1001.195
14.421393871,-0.9163041,-2.146741,-0.3130583,0.01835432,0.9522455,0.1769544,-6.862618,-29.19895,-8.794091,1001.195
14.441577911,-0.5486526,-2.266279,-0.1909919,0.01133776,0.9738398,0.1876104,-6.882031,-28.46032,-8.794349,1001.195
14.461761951,-0.3648268,-2.20651,-0.2520251,0.01205844,0.9547769,0.1565771,-6.882031,-28.46032,-8.794349,1001.195
14.481945991,-0.1197258,-2.266279,-0.2520251,-0.001345989,0.9471648,0.1223851,-6.882031,-28.46032,-8.794349,1001.195
14.502129078,-0.1197258,-2.146741,-0.2520251,0.01791305,1.029099,0.1463614,-7.191596,-28.45945,-8.795581,1001.195
14.519790172,0.1866505,-1.608822,-0.007892244,0.009520018,1.006165,0.1011538,-7.191596,-28.45945,-8.795581,1001.195
14.539974213,-0.3035516,-1.429516,-0.06892546,0.01314617,0.9842665,0.1649445,-7.18048,-28.82744,-9.171849,1001.195
14.560158253,-0.2422763,-0.4732157,0.1141742,0.01385353,0.9660422,0.1470657,-7.18048,-28.82744,-9.171849,1001.188
14.580342293,-0.2422763,-0.7122907,-0.007892244,0.01396383,0.9963849,0.1656698,-7.18048,-28.82744,-9.171849,1001.188
14.600525856,-0.3648268,-0.9513657,-0.007892244,0.031771,0.9995462,0.1666794,-6.510556,-28.46137,-8.792871,1001.191
14.620709896,-0.2422763,-0.7720594,-0.1909919,0.02019815,0.9588136,0.201411,-6.510556,-28.46137,-8.792871,1001.191
14.640893936,0.1253752,-1.489285,-0.3130583,0.02999619,0.9870499,0.1537834,-6.882031,-28.46032,-8.794349,1001.191
14.661077976,-0.1810011,-1.967435,-0.3130583,0.02075298,0.9928339,0.1918652,-6.882031,-28.46032,-8.794349,1001.191
14.681262016,0.3704762,-2.086972,-0.3740916,0.01436211,1.003995,0.1317587,-6.882031,-28.46032,-8.794349,1001.19
14.701445579,-0.3648268,-2.326047,-0.3130583,0.01365399,1.022157,0.155962,-6.872325,-28.82964,-8.79422,1001.19
14.721629620,-0.6099278,-3.222579,-0.496158,0.005577013,0.9314101,0.2067292,-6.872325,-28.82964,-8.79422,1001.19
14.741813660,-0.3648268,-3.043272,-0.496158,0.014474,0.9542077,0.168727,-6.883676,-28.46187,-8.355219,1001.19
14.761996746,0.1253752,-3.103041,-0.5571912,0.03167503,0.9674801,0.17529,-6.883676,-28.46187,-8.355219,1001.186
14.782180786,-0.2422763,-2.923735,-0.3740916,0.03509964,0.9638243,0.1581821,-6.883676,-28.46187,-8.355219,1001.186
14.802364826,-0.7937536,-2.68466,-0.3130583,0.007807029,0.9465284,0.2002129,-7.173827,-29.19962,-8.356194,1001.186
14.820025921,-0.6712031,-2.804197,-0.3740916,0.002967604,0.9875952,0.2049255,-7.173827,-29.19962,-8.356194,1001.186
14.840209961,-0.4261021,-3.043272,-0.1909919,0.00531117,0.9540331,0.1726296,-6.883676,-28.46187,-8.355219,1001.186
14.860394001,0.06409996,-3.222579,-0.3130583,0.01984444,0.9887163,0.1659959,-6.883676,-28.46187,-8.355219,1001.186
14.880578041,-0.05845055,-2.68466,-0.4351248,0.00862678,0.9994343,0.143355,-6.883676,-28.46187,-8.355219,1001.186
14.900761604,0.1866505,-2.266279,-0.3740916,0.008882731,0.8986412,0.1447658,-6.491143,-29.2,-8.792613,1001.19
14.920945644,0.7381278,-2.385816,-0.2520251,-0.01774541,0.9466222,0.1525668,-6.491143,-29.2,-8.792613,1001.19
14.941129684,0.06409996,-2.923735,-0.2520251,0.009985691,1.005773,0.1901907,-6.870915,-28.82831,-9.170617,1001.19
14.961313725,0.3704762,-3.103041,-0.1909919,0.02624861,1.056977,0.1814485,-6.870915,-28.82831,-9.170617,1001.19
14.981497288,-0.6712031,-2.624891,-0.2520251,0.0425202,0.9483745,0.1637045,-6.875613,-28.83273,-7.91596,1001.18
15.001681328,-0.6099278,-2.146741,-0.3740916,0.03018424,0.9299842,0.2407259,-6.875613,-28.83273,-7.91596,1001.18
15.021864891,0.1866505,-1.489285,-0.1299587,0.0349505,0.9360884,0.1697981,-6.875613,-28.83273,-7.91596,1001.182
15.042048454,0.4317515,-0.8915969,-0.3130583,0.001127407,1.020973,0.1588764,-6.883676,-28.46187,-8.355219,1001.182
15.062232494,0.3704762,-0.8915969,-0.06892546,0.00803162,0.9688672,0.1466436,-6.883676,-28.46187,-8.355219,1001.186
15.079894066,-0.1810011,-0.4134469,-0.496158,-0.0007987274,0.9399437,0.2161526,-7.164123,-29.56894,-8.356066,1001.186
15.100077629,0.4930267,-0.5927532,-0.3130583,0.01689135,0.9141414,0.1572255,-7.164123,-29.56894,-8.356066,1001.186
15.120261669,1.044504,-0.2939094,-0.1909919,-0.01690564,0.9576592,0.1158034,-7.164123,-29.56894,-8.356066,1001.186
15.140445709,0.309201,-0.6525219,-0.3130583,0.03527832,1.068446,0.1621988,-6.872325,-28.82964,-8.79422,1001.186
15.160629749,0.3704762,-0.4134469,0.05314098,0.04508629,0.9756569,0.1525626,-6.872325,-28.82964,-8.79422,1001.186
15.180813313,-0.3648268,0.2440094,-0.1909919,0.01974395,0.9572456,0.1634269,-6.864263,-29.2005,-8.354961,1001.186
15.200997353,-0.1197258,0.1842406,0.05314098,-0.002034871,0.9640086,0.1329377,-6.864263,-29.2005,-8.354961,1001.186
15.221181393,-0.3648268,0.1244719,-0.3130583,0.006859342,0.9856073,0.1669266,-6.864263,-29.2005,-8.354961,1001.186
15.241365433,-0.3035516,0.3635469,0.05314098,-0.01129835,0.9719956,0.1443009,-6.489734,-29.19868,-9.16901,1001.186
15.261549473,-0.05845055,0.1244719,-0.1299587,-0.005521704,0.9731854,0.1306916,-6.489734,-29.19868,-9.16901,1001.188
15.281732559,-0.1197258,-0.4732157,0.1141742,0.02357584,0.9996513,0.1438239,-6.491143,-29.2,-8.792613,1001.188
15.301916599,0.002824706,0.00493436,0.05314098,0.02965317,0.9762502,0.1185359,-6.491143,-29.2,-8.792613,1001.188
15.322100639,0.4317515,-0.5329844,-0.007892244,0.01302752,0.9948193,0.1267132,-6.491143,-29.2,-8.792613,1001.188
15.342284202,-0.3648268,-0.1743719,-0.06892546,0.02377785,0.9833862,0.123065,-6.864263,-29.2005,-8.354961,1001.19
15.359945774,-0.4261021,-0.1743719,-0.06892546,0.009476206,0.968715,0.1641555,-6.864263,-29.2005,-8.354961,1001.19
15.380129337,-0.1810011,-0.7122907,-0.007892244,-0.01401982,0.9976932,0.1384879,-7.164123,-29.56894,-8.356066,1001.191
15.400313377,0.2479257,-1.190441,-0.1909919,0.01069539,0.9877419,0.1528522,-7.164123,-29.56894,-8.356066,1001.191
15.420497417,-0.6712031,-1.429516,-0.1299587,0.001222892,1.013354,0.1455877,-7.164123,-29.56894,-8.356066,1001.191
15.440681457,0.06409996,-0.7720594,-0.3130583,0.02556496,0.9553152,0.1225069,-6.510556,-28.46137,-8.792871,1001.191
15.460865497,0.002824706,-0.5927532,-0.2520251,0.01234009,0.972137,0.1165336,-6.510556,-28.46137,-8.792871,1001.193
15.481049061,-0.4261021,-1.070903,-0.1299587,-0.001242199,0.9779387,0.1463501,-6.481439,-29.56932,-8.792484,1001.193
15.501233101,-0.1197258,-1.608822,-0.3130583,0.002247972,1.008684,0.1294364,-6.481439,-29.56932,-8.792484,1001.191
15.521416664,-0.05845055,-1.72836,-0.1909919,0.00400515,0.9829865,0.1337911,-6.481439,-29.56932,-8.792484,1001.191
15.541601181,0.002824706,-2.565122,-0.496158,-0.00349323,1.004607,0.1410422,-6.119668,-29.20105,-8.791135,1001.197
15.561784267,0.2479257,-1.309978,-0.1299587,0.06208622,1.126146,0.1005317,-6.119668,-29.20105,-8.791135,1001.197
15.581968307,-0.4873773,-0.9513657,-0.3740916,0.005013205,0.979818,0.1128037,-6.492787,-29.20155,-8.353483,1001.195
15.602152347,-0.05845055,-1.429516,-0.1299587,-0.01660253,0.9719458,0.1413882,-6.492787,-29.20155,-8.353483,1001.195
15.622335911,0.1253752,-1.25021,-0.1299587,-0.001653501,0.9731299,0.0932176,-6.854558,-29.56981,-8.354834,1001.195
15.639997482,0.002824706,-1.130672,-0.1909919,0.01410525,0.9857758,0.111935,-6.854558,-29.56981,-8.354834,1001.195
15.660181522,0.06409996,-1.130672,-0.007892244,0.008171065,0.9977407,0.1180196,-6.854558,-29.56981,-8.354834,1001.195
15.680365086,-0.05845055,-0.6525219,-0.1909919,0.02393615,0.9702942,0.1242655,-6.489734,-29.19868,-9.16901,1001.195
15.700549126,-0.1197258,-0.1146031,-0.06892546,0.01249142,0.9990845,0.135557,-6.489734,-29.19868,-9.16901,1001.195
15.720733166,0.002824706,0.1244719,0.05314098,0.003740972,1.004777,0.1347093,-6.492787,-29.20155,-8.353483,1001.195
15.740917206,0.1866505,0.6026219,0.05314098,0.008474751,0.972429,0.1301695,-6.492787,-29.20155,-8.353483,1001.195
15.761100769,0.2479257,0.4830844,0.2362406,0.01293478,1.002665,0.1171369,-6.492787,-29.20155,-8.353483,1001.195
15.781284809,-0.05845055,0.6026219,0.1141742,0.01886053,0.9909725,0.1324676,-6.50085,-28.83069,-8.792742,1001.195
15.801468849,-0.05845055,0.2440094,-0.007892244,0.0165595,0.9816182,0.1439639,-6.50085,-28.83069,-8.792742,1001.195
15.821651936,-0.2422763,-0.1146031,0.05314098,0.01702237,0.9829335,0.1585868,-6.862618,-29.19895,-8.794091,1001.194
15.841835976,0.002824706,0.1244719,-0.007892244,0.01326414,0.9746278,0.1598877,-6.862618,-29.19895,-8.794091,1001.194
15.862020016,0.002824706,-0.4134469,-0.06892546,0.006406459,0.9831784,0.1668792,-6.862618,-29.19895,-8.794091,1001.195
15.882204056,-0.1197258,-0.1743719,-0.06892546,0.01845533,0.9837596,0.175145,-6.481439,-29.56932,-8.792484,1001.195
15.899865150,-0.05845055,-0.2939094,0.1141742,0.02480567,0.9770041,0.1818142,-6.481439,-29.56932,-8.792484,1001.195
15.920049191,-0.1197258,-0.1146031,0.1141742,0.008545681,0.9656883,0.1748019,-7.162478,-29.56739,-8.795196,1001.197
15.940233231,0.002824706,-0.2939094,-0.06892546,0.01991259,0.9827158,0.184854,-7.162478,-29.56739,-8.795196,1001.197
15.960416794,-0.05845055,-0.3536782,-0.1299587,0.01554412,0.9851503,0.1771232,-7.162478,-29.56739,-8.795196,1001.197
15.980600834,0.1253752,-0.2939094,0.1141742,0.01707443,0.9785117,0.1648249,-6.852914,-29.56826,-8.793963,1001.197
16.000784874,0.2479257,0.00493436,-0.06892546,0.01575164,0.9683719,0.1592737,-6.852914,-29.56826,-8.793963,1001.197
16.020968914,-0.1810011,0.00493436,0.1752074,0.01116831,0.9879486,0.1815643,-6.861209,-29.19763,-9.170488,1001.197
16.041152954,-0.2422763,0.2440094,0.1141742,0.02790799,1.000031,0.1608556,-6.861209,-29.19763,-9.170488,1001.197
16.061336517,0.002824706,0.6026219,-0.007892244,0.01236477,0.9693291,0.1554049,-6.861209,-29.19763,-9.170488,1001.197
16.081520081,-0.1197258,0.6026219,0.05314098,0.01219304,0.9832497,0.1683319,-6.872325,-28.82964,-8.79422,1001.197
16.101703644,-0.3035516,0.841697,-0.007892244,0.009780023,0.9830595,0.1839025,-6.872325,-28.82964,-8.79422,1001.197
16.121887684,-0.1810011,0.4830844,0.05314098,0.01636653,0.9570459,0.1785121,-6.862618,-29.19895,-8.794091,1001.197
16.142071724,-0.2422763,0.2440094,0.1141742,0.01245611,0.9613671,0.176657,-6.862618,-29.19895,-8.794091,1001.197
16.162255764,-0.2422763,-0.0548344,-0.007892244,0.0294645,0.99071,0.1747798,-7.172183,-29.19807,-8.795323,1001.195
16.179916859,-0.1810011,-0.4732157,-0.06892546,0.02154728,0.9672526,0.1830858,-7.172183,-29.19807,-8.795323,1001.195
16.200100899,-0.2422763,-0.6525219,-0.1299587,0.02307085,0.9610257,0.1780944,-7.172183,-29.19807,-8.795323,1001.201
16.220284939,-0.1810011,-0.4732157,-0.06892546,0.02170693,0.9939183,0.1816669,-7.525891,-29.9372,-8.357415,1001.201
16.240468979,0.1866505,-0.1743719,0.05314098,0.008045795,1.006776,0.1838878,-7.525891,-29.9372,-8.357415,1001.201
16.260652542,-0.2422763,-0.1146031,-0.2520251,0.00882003,0.982445,0.1955698,-7.905429,-29.56529,-8.798153,1001.201
16.280836582,-0.1810011,-0.2939094,-0.1299587,0.01488276,0.959776,0.1941391,-7.905429,-29.56529,-8.798153,1001.201
16.301020622,0.1866505,-0.3536782,-0.1299587,0.01730206,0.9991625,0.1837235,-7.905429,-29.56529,-8.798153,1001.201
16.321204662,-0.2422763,-0.1743719,-0.06892546,0.01780408,0.9572814,0.2057635,-6.843207,-29.93758,-8.793835,1001.199
16.341388225,0.06409996,-0.2341407,-0.3130583,0.01106342,0.9967297,0.1754126,-6.843207,-29.93758,-8.793835,1001.199
16.361571789,-0.2422763,-0.1146031,-0.1299587,0.01574256,0.9685907,0.1860403,-6.843207,-29.93758,-8.793835,1001.199
16.381755829,-0.1810011,0.1244719,0.1752074,0.02008752,1.007735,0.202866,-6.843207,-29.93758,-8.793835,1001.199
16.401939392,0.002824706,0.5428532,0.2362406,0.005452745,0.9821134,0.1751315,-6.843207,-29.93758,-8.793835,1001.199
16.422123432,-0.3648268,0.3037781,0.1752074,0.01124438,0.9816327,0.1833855,-6.851504,-29.56694,-9.170361,1001.199
16.442307472,0.4930267,0.2440094,0.05314098,-0.002661819,0.9753073,0.165277,-6.851504,-29.56694,-9.170361,1001.199
16.459968567,0.4930267,0.00493436,-0.06892546,0.003928441,0.9892492,0.1373212,-7.169129,-29.19521,-9.610851,1001.199
16.480152607,0.4317515,0.1842406,0.05314098,0.004355628,0.993432,0.1558937,-7.169129,-29.19521,-9.610851,1001.199
16.500336647,0.4317515,0.1842406,-0.007892244,0.01609822,1.02008,0.1247757,-7.169129,-29.19521,-9.610851,1001.199
16.520520687,-0.1197258,0.3037781,0.1141742,0.01726617,0.9633358,0.1319229,-7.152772,-29.9367,-8.795067,1001.197
16.540704250,-0.4873773,0.06470311,-0.06892546,0.01485092,0.9233154,0.1574101,-7.152772,-29.9367,-8.795067,1001.197
16.560888290,-0.3648268,0.06470311,0.1752074,0.01628244,0.9636675,0.1947006,-6.852914,-29.56826,-8.793963,1001.197
16.581072330,-0.2422763,0.3037781,0.2362406,0.005354281,0.9894863,0.2132314,-6.852914,-29.56826,-8.793963,1001.197
16.601256370,0.1866505,0.4830844,0.1141742,0.01850587,0.9395654,0.1854618,-6.852914,-29.56826,-8.793963,1001.199
16.621440411,0.4317515,0.06470311,0.2362406,0.006376206,0.9864948,0.125585,-6.84986,-29.5654,-9.609491,1001.199
16.641623497,0.2479257,-0.5927532,-0.1299587,0.00328843,0.9627308,0.1231729,-6.84986,-29.5654,-9.609491,1001.199
16.661807537,-0.6099278,-1.011135,-0.06892546,0.02065217,0.9623062,0.1430891,-7.542249,-29.1957,-9.1732,1001.199
16.681991100,-0.4261021,-1.309978,-0.1909919,0.0200494,0.9717253,0.1695521,-7.542249,-29.1957,-9.1732,1001.199
16.702175140,0.002824706,-1.369747,-0.2520251,0.02078582,0.9510551,0.1540577,-7.902375,-29.56242,-9.613681,1001.199
16.722359180,0.06409996,-1.967435,-0.3130583,0.02692009,0.9226656,0.1432685,-7.902375,-29.56242,-9.613681,1001.199
16.740020275,-0.7324783,-2.027204,-0.5571912,0.01513004,0.9791428,0.1959818,-7.902375,-29.56242,-9.613681,1001.199
16.760204315,0.002824706,-1.72836,-0.5571912,0.00907825,0.9621006,0.1465081,-6.861209,-29.19763,-9.170488,1001.201
16.780388355,-0.05845055,-1.309978,-0.3130583,0.008439427,1.014972,0.1397701,-6.861209,-29.19763,-9.170488,1001.201
16.800572395,0.06409996,-1.668591,-0.4351248,-0.006678915,0.9892318,0.1232255,-7.170774,-29.19675,-9.171721,1001.201
16.820756435,0.1253752,-1.907666,-0.4351248,0.01230395,1.014613,0.1329451,-7.170774,-29.19675,-9.171721,1001.201
16.840939999,-0.6099278,-1.608822,-0.06892546,0.007603482,1.003282,0.193551,-7.170774,-29.19675,-9.171721,1001.201
16.861124039,0.1866505,-1.130672,-0.3740916,0.01628664,0.964015,0.1596733,-6.851504,-29.56694,-9.170361,1001.201
16.881308079,0.1253752,-1.608822,-0.1909919,0.01707467,0.978531,0.1628789,-6.851504,-29.56694,-9.170361,1001.201
16.901492119,-0.1810011,-0.9513657,-0.06892546,0.02198988,0.9707708,0.1709901,-7.169129,-29.19521,-9.610851,1001.201
16.921675205,0.2479257,-0.5927532,0.2362406,0.003790876,1.000177,0.1589475,-7.169129,-29.19521,-9.610851,1001.201
16.941859245,-0.1197258,-0.4134469,0.1141742,0.01662532,0.9754246,0.1822816,-7.169129,-29.19521,-9.610851,1001.201
16.962043285,0.1866505,-1.070903,-0.06892546,-0.00492635,0.9631531,0.166013,-7.161069,-29.56607,-9.171593,1001.201
16.982226849,0.2479257,-0.7720594,-0.007892244,0.0001485702,0.9820637,0.1722188,-7.161069,-29.56607,-9.171593,1001.201
16.999888420,-0.05845055,-0.6525219,-0.1299587,0.01406075,0.9879143,0.1893447,-6.481439,-29.56932,-8.792484,1001.201
17.020072460,0.06409996,-0.4732157,-0.1299587,0.01848738,1.021207,0.1612885,-6.481439,-29.56932,-8.792484,1001.201
17.040256023,-0.05845055,-0.1743719,-0.06892546,0.01271753,1.01961,0.1671044,-6.481439,-29.56932,-8.792484,1001.201
17.060440063,-0.6099278,0.6026219,-0.3740916,0.03054255,0.9807234,0.2062088,-6.480029,-29.56799,-9.168881,1001.201
17.080624104,0.1253752,0.9612345,0.05314098,0.02119475,0.9566379,0.1780103,-6.480029,-29.56799,-9.168881,1001.201
17.100808144,0.1866505,1.260078,-0.007892244,-0.01616665,0.9352623,0.1766689,-6.470323,-29.93731,-9.168753,1001.201
17.120991707,0.002824706,1.260078,0.3583071,0.009435201,1.051404,0.1808763,-6.470323,-29.93731,-9.168753,1001.201
17.141175747,0.1866505,1.738228,0.2362406,0.008173481,1.075293,0.2129791,-6.470323,-29.93731,-9.168753,1001.201
17.161359787,-0.8550289,0.4233156,0.1141742,0.009673296,0.990719,0.241958,-6.840154,-29.93471,-9.609363,1001.201
17.181543827,-0.6712031,1.797997,0.05314098,0.05645909,0.9119396,0.1941045,-6.840154,-29.93471,-9.609363,1001.2
17.201727867,0.4317515,1.379616,0.4193403,0.0168652,1.075411,0.1652832,-7.162478,-29.56739,-8.795196,1001.2
17.221911430,-0.1197258,1.319847,0.1752074,0.01736598,1.074042,0.15747,-7.162478,-29.56739,-8.795196,1001.205
17.242094994,-0.4261021,1.379616,0.1752074,0.006394056,0.9048005,0.1551097,-7.162478,-29.56739,-8.795196,1001.205
17.262278557,-0.3035516,1.917534,-0.06892546,0.02422971,0.9847611,0.1805088,-6.489734,-29.19868,-9.16901,1001.207
17.279940128,-0.6099278,2.156609,0.5414068,0.01444301,0.9168476,0.1738266,-6.489734,-29.19868,-9.16901,1001.207
17.300124168,-0.9775794,2.814066,0.2362406,0.01359468,0.9060729,0.2329782,-6.84986,-29.5654,-9.609491,1001.207
17.320307731,-0.3035516,2.515222,0.4803735,0.02755425,0.9090546,0.1974959,-6.84986,-29.5654,-9.609491,1001.207
17.340491772,0.6155773,2.634759,0.1141742,0.0156754,0.9746733,0.1589119,-6.84986,-29.5654,-9.609491,1001.207
17.360675812,0.06409996,1.857766,0.2972738,0.02377445,0.9434595,0.1427115,-7.169129,-29.19521,-9.610851,1001.207
17.380859852,0.4317515,1.678459,0.2362406,0.03205805,1.016383,0.1305182,-7.169129,-29.19521,-9.610851,1001.207
17.401043415,0.1866505,1.439384,-0.06892546,0.01575205,1.048666,0.1243688,-6.84986,-29.5654,-9.609491,1001.207
17.421227455,0.554302,1.021003,0.1752074,0.01358084,1.028714,0.1298162,-6.84986,-29.5654,-9.609491,1001.209
17.441411495,-0.2422763,1.140541,0.1141742,0.01001001,1.004875,0.1342155,-7.2019,-30.23988,-10.04986,1001.209
17.461595535,0.4317515,1.140541,0.1752074,0.01542525,1.03533,0.1494079,-7.2019,-30.23988,-10.04986,1001.207
17.481779575,-0.2422763,1.140541,-0.2520251,0.004604368,1.01292,0.1455741,-7.2019,-30.23988,-10.04986,1001.207
17.501963138,-0.2422763,1.140541,0.1752074,0.01048014,0.9661756,0.128583,-6.846572,-29.56231,-10.48775,1001.207
17.522146702,0.002824706,1.678459,0.2972738,0.0002692861,0.9726517,0.1442969,-6.846572,-29.56231,-10.48775,1001.207
17.542330742,0.1866505,1.319847,0.2362406,0.01229492,0.9751895,0.1506551,-6.846572,-29.56231,-10.48775,1001.209
17.559991836,0.002824706,1.558922,0.3583071,0.01650015,0.9467618,0.1408412,-6.846572,-29.56231,-10.48775,1001.209
17.580175877,0.1253752,1.499153,0.2362406,0.02210084,0.9624918,0.1265467,-6.846572,-29.56231,-10.48775,1001.209
17.600359440,0.554302,1.857766,0.2972738,0.004478279,1.023826,0.1204876,-7.157781,-29.56298,-10.04985,1001.209
17.620543480,0.1866505,1.678459,0.1752074,0.008494345,0.9711401,0.1136,-7.157781,-29.56298,-10.04985,1001.209
17.640727520,0.1866505,1.738228,0.2972738,0.01410072,0.9863712,0.1007553,-6.846572,-29.56231,-10.48775,1001.209
17.660911560,-0.2422763,1.857766,0.3583071,0.01070831,1.026516,0.1516733,-6.846572,-29.56231,-10.48775,1001.209
17.681095600,0.2479257,1.379616,0.2972738,0.007765369,0.9914564,0.1159495,-6.846572,-29.56231,-10.48775,1001.209
17.701279163,-0.3648268,1.379616,0.05314098,0.01975362,0.9967217,0.1403654,-6.83851,-29.93317,-10.04849,1001.209
17.721463203,0.002824706,1.140541,0.1141742,0.01089723,0.9714623,0.1335529,-6.83851,-29.93317,-10.04849,1001.209
17.741647243,-0.05845055,1.080772,0.1752074,0.01628816,0.9641405,0.1470245,-7.548667,-28.8233,-10.05159,1001.207
17.761831284,-0.1810011,0.9612345,0.1141742,0.004544847,0.9780487,0.1439109,-7.548667,-28.8233,-10.05159,1001.207
17.782014847,0.002824706,0.9014657,-0.007892244,0.02038078,0.9844704,0.1552062,-7.548667,-28.8233,-10.05159,1001.213
17.802198887,0.06409996,0.9014657,0.1141742,0.01805456,1.017527,0.1407797,-7.157781,-29.56298,-10.04985,1001.213
17.819859505,0.002824706,0.7221594,0.2362406,-0.0005712154,0.9625239,0.1382587,-7.157781,-29.56298,-10.04985,1001.209
17.840043545,0.2479257,0.6623907,0.1141742,0.02374193,0.9862343,0.1289605,-6.836865,-29.93162,-10.48762,1001.209
17.860227585,-0.05845055,0.7221594,0.1752074,0.005478967,0.9804028,0.1522281,-6.836865,-29.93162,-10.48762,1001.213
17.880411625,0.2479257,0.7221594,-0.06892546,0.01991744,0.9831164,0.1444752,-6.836865,-29.93162,-10.48762,1001.213
17.900595188,0.1253752,0.3635469,-0.1299587,0.004156246,1.009915,0.1547604,-6.846572,-29.56231,-10.48775,1001.209
17.920779228,-0.05845055,0.1842406,-0.06892546,0.01584638,1.000337,0.1608793,-6.846572,-29.56231,-10.48775,1001.209
17.940963268,-0.05845055,0.00493436,0.1141742,0.01329354,0.9722109,0.1593533,-6.857921,-29.19454,-10.04875,1001.211
17.961147308,-0.1197258,0.1842406,0.05314098,0.02183634,0.9832867,0.1790234,-6.857921,-29.19454,-10.04875,1001.211
17.981330872,-0.1810011,0.4233156,-0.007892244,0.003451293,0.9877231,0.1927626,-6.475097,-29.56336,-10.48627,1001.215
18.001514912,-0.05845055,0.4830844,-0.007892244,0.01904879,0.9745399,0.1773946,-6.475097,-29.56336,-10.48627,1001.215
18.021698952,-0.05845055,0.5428532,-0.06892546,0.006564404,0.9700575,0.1709986,-6.475097,-29.56336,-10.48627,1001.215
18.041882992,-0.05845055,0.06470311,-0.06892546,0.01212039,0.9888785,0.1869337,-7.167485,-29.19366,-10.04998,1001.215
18.062067032,-0.1810011,-0.0548344,0.05314098,0.01485007,1.002536,0.1818476,-7.167485,-29.19366,-10.04998,1001.211
18.082250595,-0.2422763,-0.0548344,-0.1909919,0.01834405,0.9929816,0.1733814,-7.154727,-29.56011,-10.86538,1001.211
18.099911213,-0.1197258,-0.1146031,-0.1299587,0.01966735,0.963518,0.1659841,-7.154727,-29.56011,-10.86538,1001.211
18.120095253,-0.2422763,-0.2341407,-0.007892244,0.01026853,0.9826161,0.1804869,-7.154727,-29.56011,-10.86538,1001.215
18.140279293,0.2479257,-0.1743719,-0.007892244,0.01680774,0.9604483,0.1780922,-6.854867,-29.19167,-10.86428,1001.215
18.160463333,0.1866505,-0.2939094,-0.1909919,0.01137055,0.9717027,0.1588594,-6.854867,-29.19167,-10.86428,1001.213
18.180646896,0.4930267,-0.4732157,-0.2520251,0.01846036,0.9841747,0.1333068,-7.175548,-28.8228,-10.48924,1001.213
18.200830936,0.6768525,-1.011135,-0.06892546,-0.002609423,1.011528,0.1285266,-7.175548,-28.8228,-10.48924,1001.209
18.221014977,-0.1810011,-0.4134469,-0.1909919,0.0340015,0.9740892,0.1963406,-7.175548,-28.8228,-10.48924,1001.209
18.241199017,-0.1810011,-0.2939094,0.1752074,-0.001615481,0.9685165,0.167574,-6.494508,-28.82473,-10.48653,1001.209
18.261383057,-0.05845055,-0.2939094,-0.2520251,0.004759384,0.9599106,0.165448,-6.494508,-28.82473,-10.48653,1001.209
18.281566620,0.1253752,-0.8915969,0.1752074,0.01159248,0.9532057,0.1677382,-6.845162,-29.56098,-10.86415,1001.211
18.301750660,0.1253752,-0.8318282,-0.1909919,0.006493973,0.9758697,0.1711137,-6.845162,-29.56098,-10.86415,1001.211
18.321934700,0.4317515,-1.070903,-0.1909919,0.0171519,0.9723116,0.1549703,-6.845162,-29.56098,-10.86415,1001.211
18.342118740,0.554302,-0.5927532,-0.1299587,0.01413785,1.022299,0.1423396,-6.848216,-29.56385,-10.04862,1001.211
18.362302303,0.2479257,-0.7720594,-0.06892546,0.00442416,0.9884325,0.1227067,-6.848216,-29.56385,-10.04862,1001.211
18.379962921,0.1866505,-0.7720594,-0.06892546,0.01541518,1.035467,0.1844448,-6.846572,-29.56231,-10.48775,1001.211
18.400146961,-0.1197258,-0.4134469,-0.1299587,0.01401858,0.992185,0.1495292,-6.846572,-29.56231,-10.48775,1001.213
18.420331001,0.1866505,-0.2341407,0.1141742,0.009202072,0.9906523,0.1991378,-6.846572,-29.56231,-10.48775,1001.213
18.440515041,0.002824706,-0.4732157,-0.007892244,0.02168827,0.9952844,0.1904526,-6.854867,-29.19167,-10.86428,1001.213
18.460699081,-0.1810011,-0.7720594,0.05314098,0.01263286,0.9459226,0.2196573,-6.854867,-29.19167,-10.86428,1001.213
18.480882645,-0.3035516,-0.4732157,-0.007892244,0.01934722,0.9487936,0.2333287,-7.156137,-29.56143,-10.48898,1001.213
18.501066685,0.309201,-0.3536782,-0.06892546,0.01234174,1.00998,0.2092474,-7.156137,-29.56143,-10.48898,1001.213
18.521250725,-0.1197258,-0.3536782,-0.1299587,0.003798109,0.9591898,0.1878181,-6.854867,-29.19167,-10.86428,1001.213
18.541434765,-0.05845055,-0.4134469,-0.2520251,0.02988903,0.9956427,0.1666049,-6.854867,-29.19167,-10.86428,1001.213
18.561618328,0.1866505,-0.5329844,-0.06892546,0.008411213,0.9768718,0.1706442,-6.854867,-29.19167,-10.86428,1001.213
18.581802368,0.2479257,-0.5927532,-0.06892546,-0.0144555,0.9937774,0.1418171,-7.164432,-29.19079,-10.86551,1001.213
18.601986408,0.06409996,-0.2341407,-0.1909919,0.03890302,1.007752,0.1804557,-7.164432,-29.19079,-10.86551,1001.217
18.622170448,0.06409996,-0.5927532,-0.007892244,-0.009003706,1.021438,0.1457627,-7.156137,-29.56143,-10.48898,1001.217
18.639831066,0.309201,-0.6525219,-0.06892546,-0.002214747,0.9782254,0.1648475,-7.156137,-29.56143,-10.48898,1001.217
18.660015106,-0.5486526,-0.9513657,-0.3130583,0.02021432,0.9582118,0.1644185,-7.156137,-29.56143,-10.48898,1001.217
18.680198669,-0.3648268,-1.489285,-0.1909919,0.02998013,0.9480146,0.1812329,-6.854867,-29.19167,-10.86428,1001.217
18.700382709,0.2479257,-1.011135,-0.2520251,0.01645315,0.9902785,0.1499745,-6.854867,-29.19167,-10.86428,1001.217
18.720566750,0.002824706,-1.309978,0.1141742,-0.004488378,1.006904,0.1522806,-6.854867,-29.19167,-10.86428,1001.215
18.740750790,-0.3035516,-1.429516,-0.1909919,0.007139503,1.001875,0.1881714,-6.854867,-29.19167,-10.86428,1001.215
18.760934353,0.2479257,-1.847897,-0.3740916,0.02793815,0.9976769,0.1539968,-6.854867,-29.19167,-10.86428,1001.209
18.781118393,0.6768525,-2.086972,-0.1299587,-0.001221683,0.9370804,0.1134267,-6.864573,-28.82235,-10.86441,1001.209
18.801302433,-0.05845055,-2.624891,-0.1909919,-0.009515584,0.9841812,0.1396736,-6.864573,-28.82235,-10.86441,1001.208
18.821486473,0.002824706,-2.983504,-0.3130583,0.01033208,1.01782,0.1485822,-6.483392,-29.19272,-10.8628,1001.208
18.841670513,-0.1197258,-3.282347,-0.3740916,-0.003203472,0.9810528,0.1225719,-6.483392,-29.19272,-10.8628,1001.212
18.861854076,-0.7324783,-3.282347,-0.3740916,0.01119348,0.9861512,0.1674176,-6.483392,-29.19272,-10.8628,1001.212
18.882038116,-0.1810011,-2.744429,-0.2520251,0.01568645,1.013293,0.1733007,-6.854632,-29.19145,-10.92701,1001.21
18.902222157,0.3704762,-1.788128,-0.4351248,0.02062394,1.004466,0.1424638,-6.854632,-29.19145,-10.92701,1001.21
18.919882774,0.002824706,-1.668591,-0.06892546,-0.0002551381,0.9759432,0.153608,-6.848216,-29.56385,-10.04862,1001.21
18.940066814,0.2479257,-0.4732157,-0.1909919,0.01703282,0.9818586,0.1692705,-6.848216,-29.56385,-10.04862,1001.21
18.960250378,0.309201,-0.2939094,0.1141742,0.01116907,0.9880114,0.1752399,-6.848216,-29.56385,-10.04862,1001.206
18.980434418,0.06409996,0.00493436,0.2362406,0.00601948,0.9755326,0.155537,-7.156137,-29.56143,-10.48898,1001.206
19.000618458,-0.1810011,0.3037781,-0.1909919,0.01306992,0.990568,0.1645828,-7.156137,-29.56143,-10.48898,1001.206
19.020802498,0.1253752,0.2440094,-0.007892244,0.01776085,1.002079,0.1346353,-7.517905,-29.9297,-10.49033,1001.206
19.040986538,-0.3648268,0.5428532,-0.06892546,0.03191429,0.9871525,0.1951425,-7.517905,-29.9297,-10.49033,1001.204
19.061170101,0.002824706,0.9612345,-0.1299587,0.02996139,0.9899898,0.1504355,-7.517905,-29.9297,-10.49033,1001.204
19.081354141,0.1253752,0.7819282,0.1141742,0.01505132,0.9862085,0.1674131,-7.535672,-29.18952,-10.92972,1001.204
19.101538181,-0.1197258,0.7819282,0.05314098,0.008870547,0.9788647,0.1658171,-7.535672,-29.18952,-10.92972,1001.204
19.121722221,-0.4873773,0.6026219,0.3583071,-0.01267248,0.9653686,0.1753133,-6.854867,-29.19167,-10.86428,1001.204
19.141905785,0.1866505,0.1244719,-0.06892546,-0.004312045,0.9517788,0.1901163,-6.854867,-29.19167,-10.86428,1001.204
19.162089825,-0.05845055,-0.5927532,-0.007892244,0.02827072,0.9699048,0.1699905,-6.846572,-29.56231,-10.48775,1001.204
19.182273865,0.002824706,-0.7720594,-0.1909919,0.03708633,0.9985789,0.1744378,-6.846572,-29.56231,-10.48775,1001.196
19.199934483,-0.1810011,-0.8915969,-0.1299587,0.03471193,0.9551486,0.2018038,-6.846572,-29.56231,-10.48775,1001.196
19.220118523,-0.2422763,-0.5927532,-0.3130583,0.0298306,0.9995382,0.2133944,-7.164432,-29.19079,-10.86551,1001.196
19.240302563,-0.2422763,-1.369747,-0.3130583,-0.00769904,0.9527263,0.1872205,-7.164432,-29.19079,-10.86551,1001.196
19.260486126,0.06409996,-1.608822,-0.1909919,-0.01380493,0.9795839,0.157106,-6.854867,-29.19167,-10.86428,1001.2
19.280670166,0.06409996,-1.309978,-0.3740916,0.03075447,1.003954,0.1604425,-6.854867,-29.19167,-10.86428,1001.2
19.300854206,0.1866505,-1.190441,-0.3740916,0.0335727,0.9707431,0.1422639,-6.854867,-29.19167,-10.86428,1001.198
19.321038246,0.1866505,-1.489285,-0.2520251,0.01682055,1.03886,0.1864563,-7.527612,-29.56038,-10.49046,1001.198
19.341221809,-0.3035516,-1.429516,-0.06892546,-0.0008336031,1.023139,0.1817918,-7.527612,-29.56038,-10.49046,1001.198
19.361405849,-0.2422763,-1.190441,0.05314098,-0.01739561,0.9560428,0.2291468,-7.153083,-29.55856,-11.30451,1001.198
19.381589889,-0.4261021,-1.72836,0.3583071,-0.02364798,0.914768,0.2288257,-7.153083,-29.55856,-11.30451,1001.194
19.401773929,0.3704762,-1.788128,-0.06892546,-0.01729144,0.9878176,0.2010669,-7.153083,-29.55856,-11.30451,1001.194
19.421957970,-0.1810011,-3.043272,0.1141742,0.01061516,0.9144217,0.1684318,-7.2247,-29.18907,-11.30489,1001.194
19.442141533,0.06409996,-3.760497,-0.6792576,0.05921889,0.9628851,0.191216,-7.2247,-29.18907,-11.30489,1001.194
19.462325573,-0.1197258,-3.700729,-0.496158,0.05328891,0.8949372,0.1937726,-7.545379,-28.82021,-10.92985,1001.193
19.479986668,-0.05845055,-2.983504,-0.8623573,0.04656085,0.972164,0.2138012,-7.545379,-28.82021,-10.92985,1001.193
19.500170708,0.4317515,-2.445585,-0.496158,0.01530005,0.9660492,0.1485235,-7.545379,-28.82021,-10.92985,1001.193
19.520354748,-0.1810011,-2.565122,-0.6792576,-0.004464763,1.084269,0.1684093,-7.22611,-29.1904,-10.92849,1001.193
19.540537834,-0.4873773,-3.043272,-0.6792576,-0.01812744,0.8978011,0.1890683,-7.22611,-29.1904,-10.92849,1001.195
19.560721874,-0.3035516,-2.445585,-0.6792576,0.01075168,1.021375,0.2303985,-7.545613,-28.82043,-10.86712,1001.195
19.580905914,1.167055,-2.68466,-0.496158,0.002096292,0.9817076,0.1133319,-7.545613,-28.82043,-10.86712,1001.187
19.601089954,0.3704762,-2.20651,-0.2520251,0.01427247,1.130065,0.1712346,-7.545613,-28.82043,-10.86712,1001.187
19.621273994,-0.2422763,-1.429516,-0.007892244,0.005640213,0.9665851,0.1777434,-7.154727,-29.56011,-10.86538,1001.189
19.641457558,0.3704762,0.00493436,-0.3740916,0.02797619,0.9543888,0.1706571,-7.154727,-29.56011,-10.86538,1001.189
19.661641598,0.4317515,-0.8318282,0.2972738,-0.05103316,1.027179,0.1391258,-7.547023,-28.82175,-10.49072,1001.187
19.681825638,1.473431,0.2440094,0.05314098,0.0005855779,1.026704,0.1176308,-7.547023,-28.82175,-10.49072,1001.187
19.702009678,-0.3648268,-0.4134469,-0.06892546,0.02989089,0.9561504,0.1424671,-7.22611,-29.1904,-10.92849,1001.187
19.722193241,-0.2422763,1.021003,0.1141742,0.02182898,1.062939,0.2088219,-7.22611,-29.1904,-10.92849,1001.187
19.739854813,-0.1810011,1.319847,-0.1909919,0.07274235,0.8043025,0.07906214,-7.22611,-29.1904,-10.92849,1001.191
19.760038853,0.309201,1.618691,-0.3740916,0.0370307,1.044292,0.1086802,-7.174138,-28.82148,-10.86564,1001.191
19.780222416,0.554302,1.260078,0.5414068,0.02350686,1.005584,0.1317768,-7.174138,-28.82148,-10.86564,1001.187
19.800406456,-2.019259,0.6623907,0.5414068,0.01496447,0.9926032,0.2064667,-7.543969,-28.81888,-11.30625,1001.187
19.820590496,0.1253752,0.2440094,-0.3130583,0.06074179,0.9575723,0.1429365,-7.543969,-28.81888,-11.30625,1001.187
19.840774536,0.8606783,0.1244719,-0.2520251,-0.007069564,0.9029605,0.07626601,-7.543969,-28.81888,-11.30625,1001.187
19.860958099,-0.2422763,0.2440094,0.1141742,-0.0262696,1.015408,0.04397204,-7.22611,-29.1904,-10.92849,1001.191
19.881142139,-0.1810011,-0.5329844,0.2362406,-0.006754654,0.9162832,0.1013452,-7.22611,-29.1904,-10.92849,1001.191
19.901325703,0.1253752,-0.2939094,0.1752074,0.002095766,0.9816642,0.1177103,-7.245522,-28.45177,-10.92875,1001.189
19.921509266,0.799403,0.1842406,-0.1909919,0.01423488,1.015777,0.06727606,-7.245522,-28.45177,-10.92875,1001.189
19.941693306,0.4930267,1.379616,0.2362406,0.04297768,1.031445,0.09381965,-7.245522,-28.45177,-10.92875,1001.189
19.961877346,0.309201,2.694528,0.1752074,0.02089625,1.022993,0.08249328,-7.547023,-28.82175,-10.49072,1001.189
19.982061386,0.309201,2.276147,0.4803735,-0.004509578,1.009029,0.1333458,-7.547023,-28.82175,-10.49072,1001.192
20.002245426,0.3704762,2.993372,0.4193403,0.004289136,1.00054,0.07428788,-7.535907,-29.18974,-10.86699,1001.192
20.019906521,-0.05845055,1.857766,0.4803735,-0.000913585,1.031071,0.1147999,-7.535907,-29.18974,-10.86699,1001.192
20.040090561,0.002824706,2.574991,0.5414068,0.02340331,0.9748297,0.1058657,-7.535907,-29.18974,-10.86699,1001.192
20.060274124,-0.2422763,2.993372,0.6024399,0.01423946,0.973601,0.1671648,-7.542325,-28.81734,-11.74538,1001.193
20.080458164,0.4317515,3.889903,0.7855396,0.01953332,0.9757072,0.1092949,-7.542325,-28.81734,-11.74538,1001.193
20.100642204,0.2479257,3.351985,0.4803735,-0.00131774,0.984298,0.1401505,-6.87428,-28.45304,-10.86453,1001.193
20.120826244,0.1253752,2.814066,0.6634732,0.00672645,0.9969212,0.1496336,-6.87428,-28.45304,-10.86453,1001.193
20.141010284,0.1253752,2.873834,0.4193403,0.01540582,0.9969872,0.1559478,-6.87428,-28.45304,-10.86453,1001.193
20.161193848,0.1253752,2.634759,0.5414068,0.01276405,1.016668,0.1217936,-7.234406,-28.81976,-11.30501,1001.193
20.181377888,-0.2422763,2.754297,0.5414068,0.02498103,1.003029,0.1472948,-7.234406,-28.81976,-11.30501,1001.193
20.201561928,0.06409996,2.216378,0.4803735,0.01114206,0.9906263,0.1558282,-7.172494,-28.81993,-11.30477,1001.196
20.221745968,0.06409996,1.738228,0.1752074,0.009459721,1.009906,0.1635111,-7.172494,-28.81993,-11.30477,1001.196
20.241929531,0.3704762,1.080772,0.1752074,0.0008876193,0.9616105,0.1348323,-7.240825,-28.44735,-12.1834,1001.196
20.262113571,-0.3035516,0.9612345,-0.007892244,0.01355104,0.9904835,0.1738255,-7.240825,-28.44735,-12.1834,1001.196
20.282297611,0.1253752,0.1244719,0.1752074,0.01204084,0.9958767,0.1651759,-7.240825,-28.44735,-12.1834,1001.194
20.299958229,0.2479257,0.1244719,-0.1299587,0.0195852,1.009946,0.1746885,-7.553676,-28.44957,-11.30638,1001.194
20.320142269,0.1253752,-0.2341407,0.05314098,0.02123921,0.9922022,0.2074227,-7.553676,-28.44957,-11.30638,1001.192
20.340326309,0.002824706,-0.5329844,0.1752074,0.02035394,0.9851608,0.2321006,-7.17085,-28.81839,-11.7439,1001.192
20.360509872,-0.05845055,-0.7122907,-0.06892546,0.01038062,0.9318759,0.2646351,-7.17085,-28.81839,-11.7439,1001.192
20.380693912,0.4930267,-0.2939094,-0.007892244,0.005481218,0.9776801,0.2801464,-7.17085,-28.81839,-11.7439,1001.192
20.400877952,0.2479257,-0.4134469,-0.4351248,-0.002375971,0.9494902,0.2771671,-7.542325,-28.81734,-11.74538,1001.196
20.421061993,-0.1810011,-0.4732157,0.1141742,0.01127212,0.9781087,0.2455988,-7.542325,-28.81734,-11.74538,1001.196
20.441245556,0.06409996,0.1244719,-0.007892244,0.007160004,0.9977522,0.3107097,-7.925151,-28.44852,-11.30785,1001.194
20.461429596,-0.1197258,-0.5329844,0.1752074,0.0310244,0.8598226,0.2811825,-7.925151,-28.44852,-11.30785,1001.194
20.481613636,0.2479257,-1.668591,-0.2520251,-0.001552567,0.9997892,0.3365518,-7.925151,-28.44852,-11.30785,1001.196
20.501797676,0.3704762,-0.0548344,-0.2520251,0.07780825,1.019726,0.2526504,-7.180556,-28.44907,-11.74403,1001.196
20.521981716,0.1866505,-1.070903,0.7855396,-0.06258988,0.9819619,0.3328825,-7.180556,-28.44907,-11.74403,1001.196
20.542165279,0.002824706,-4.657029,-0.1299587,-0.05373865,1.007764,0.3338667,-8.293338,-28.44438,-12.18759,1001.196
20.559825897,-0.05845055,-4.59726,0.05314098,0.08648364,0.8599102,0.3064053,-8.293338,-28.44438,-12.18759,1001.196
20.580009937,0.9219536,-3.521422,-0.6792576,0.08230144,0.9656553,0.3372129,-8.293338,-28.44438,-12.18759,1001.196
20.600193977,-0.7324783,-4.59726,-0.5571912,0.09091379,0.9708464,0.3640653,-7.191905,-28.0813,-11.30503,1001.196
20.620378017,2.270009,-5.374253,-0.007892244,0.01777547,1.00038,0.1594176,-7.191905,-28.0813,-11.30503,1001.196
20.640561581,-0.4261021,-8.960379,-1.350623,5.657484E-05,1.146615,0.2888503,-7.552032,-28.44802,-11.74551,1001.197
20.660745621,-1.406506,-9.558066,-1.960955,-0.06488705,1.088955,0.4848722,-7.552032,-28.44802,-11.74551,1001.197
20.680929661,-1.651607,-10.75344,-1.777856,-0.07543302,1.239992,0.6294736,-7.552032,-28.44802,-11.74551,1001.197
20.701113701,2.208734,-8.601766,-0.9233905,-0.01085124,1.129622,0.3736827,-7.191905,-28.0813,-11.30503,1001.197
20.721297741,3.556789,-10.4546,-1.777856,0.1092089,0.819784,0.08710039,-7.191905,-28.0813,-11.30503,1001.201
20.741481304,0.6155773,-16.13263,-1.411656,0.075688,1.036846,0.1843836,-7.56338,-28.08025,-11.3065,1001.201
20.761665344,-2.509461,-15.4154,-2.388188,-0.03169006,1.057995,0.3830006,-7.56338,-28.08025,-11.3065,1001.201
20.781849384,0.309201,-16.49124,-1.838889,-0.05724749,0.8623554,0.1869644,-7.55532,-28.45111,-10.86725,1001.201
20.802033424,-3.42859,-17.50731,-3.242653,0.1206883,0.9408043,0.4086796,-7.55532,-28.45111,-10.86725,1001.201
20.822216988,1.289605,-17.68662,-2.693354,0.05748435,1.025252,0.2513299,-7.55532,-28.45111,-10.86725,1001.201
20.839877605,-1.345231,-21.15321,-2.571287,0.002905116,1.353786,0.07008968,-7.1822,-28.45062,-11.3049,1001.203
20.860061645,-2.080534,-19.53945,-3.18162,0.1237227,0.8547987,0.1447027,-7.1822,-28.45062,-11.3049,1001.203
20.880245686,2.39256,-24.38072,-4.463317,-0.1808764,0.9957592,0.1328555,-6.864573,-28.82235,-10.86441,1001.201
20.900429726,-0.4873773,-28.92315,-5.134683,-0.007537718,0.9002386,0.1545533,-6.864573,-28.82235,-10.86441,1001.201
20.920613766,4.353368,-31.43343,-4.829517,-0.1884068,1.066011,-0.170833,-6.864573,-28.82235,-10.86441,1001.201
20.940797329,0.4930267,-32.92765,-4.829517,-0.105776,1.050229,-0.01945153,-7.186898,-28.45503,-10.05024,1001.201
20.960981369,-1.345231,-30.47713,-5.745015,-0.1089823,1.270058,0.2350095,-7.186898,-28.45503,-10.05024,1001.203
20.981165409,-2.203084,-25.33702,-3.242653,-0.05313403,0.7170988,0.4268903,-7.582482,-27.71976,-8.797317,1001.203
21.001349449,1.534706,-19.36014,-1.594756,-0.04867387,1.030684,0.180065,-7.582482,-27.71976,-8.797317,1001.203
21.021533012,-0.2422763,-15.05679,-2.327155,-0.01455608,0.963269,0.09109503,-7.582482,-27.71976,-8.797317,1001.203
21.041717052,-1.896708,-14.81772,-1.045457,0.07013592,0.9806409,0.02951801,-7.263213,-28.08995,-8.795957,1001.203
21.061901093,-0.6712031,-13.26373,-0.4351248,0.1541888,1.289703,-0.03309731,-7.263213,-28.08995,-8.795957,1001.203
21.082085133,3.372964,-13.98095,-2.083022,0.02215741,1.994082,0.07592161,-7.564715,-28.45994,-8.35793,1001.207
21.102269173,-0.4873773,-13.08442,-1.533723,-0.1449409,1.623213,-0.3978098,-7.564715,-28.45994,-8.35793,1001.207
21.119930267,-3.918792,-14.51887,-3.547819,-0.02467806,0.8455513,-0.02410804,-7.564715,-28.45994,-8.35793,1001.207
21.140113354,2.821486,-16.07286,-2.144055,-0.1291455,1.226921,0.01084204,-7.191596,-28.45945,-8.795581,1001.207
21.160297394,0.799403,-15.29587,-2.510254,-0.04041811,0.990126,-0.01733089,-7.191596,-28.45945,-8.795581,1001.207
21.180481434,1.902358,-16.1924,-2.876454,0.05433382,0.4964184,-0.1230988,-7.564715,-28.45994,-8.35793,1001.207
21.200665474,-0.6099278,-14.75795,-3.486786,0.01683139,1.196401,0.2285012,-7.564715,-28.45994,-8.35793,1001.207
21.220849037,-0.3035516,-14.75795,-2.388188,0.05746081,1.152909,-0.06437127,-7.564715,-28.45994,-8.35793,1001.207
21.241033077,-2.877112,-14.69818,-2.205088,0.03275368,1.16062,0.0005336348,-7.929772,-28.8313,-7.48102,1001.207
