Time (s),Gyroscope X (deg/s),Gyroscope Y (deg/s),Gyroscope Z (deg/s),Accelerometer X (g),Accelerometer Y (g),Accelerometer Z (g),Magnetometer X (uT),Magnetometer Y (uT),Magnetometer Z (uT),Barometer (hPa)
0.000000000,-0.05310292,0.07745139,0.2901244,0.01028929,0.9814237,0.1541876,6.586974,-24.04662,-31.95331,1001.503
0.020183563,-0.1756534,0.07745139,-0.07607486,0.02272073,0.9902557,0.1616429,6.586974,-24.04662,-31.95331,1001.503
0.040367603,-0.1756534,-0.1018549,-0.01504164,0.02720707,0.9781727,0.1652899,6.586974,-24.04662,-31.95331,1001.503
0.060550690,0.2532734,-0.1018549,-0.2591745,0.03249898,0.9791477,0.1726002,6.225204,-24.41489,-31.95466,1001.503
0.080734730,0.2532734,-0.2811612,-0.2591745,0.01758554,0.9760584,0.1686683,6.225204,-24.41489,-31.95466,1001.503
0.100917816,0.1919981,-0.2811612,-0.2591745,0.004453888,0.9850726,0.1683794,6.59668,-24.41594,-31.95318,1001.503
0.121101856,0.008172336,-0.1018549,-0.1371081,-0.002837139,0.9899005,0.1592405,6.59668,-24.41594,-31.95318,1001.503
0.138762474,0.008172336,-0.4006987,-0.07607486,0.002503304,0.9871311,0.1533388,6.59668,-24.41594,-31.95318,1001.503
0.158946514,-0.05310292,-0.04208612,0.04599158,0.01311229,0.9872836,0.1538128,6.956806,-24.04922,-31.5127,1001.503
0.179129601,0.1307229,-0.1616236,0.04599158,0.01505219,0.9862809,0.1601157,6.956806,-24.04922,-31.5127,1001.503
0.199313641,-0.05310292,0.01768263,-0.01504164,0.01358842,0.987756,0.1557678,6.196086,-23.30694,-31.95505,1001.503
0.219496727,0.008172336,0.07745139,-0.07607486,0.01698686,0.9858155,0.1610769,6.196086,-23.30694,-31.95505,1001.503
0.239680767,-0.05310292,0.01768263,0.04599158,0.009741507,0.9866624,0.162564,5.852084,-24.41538,-31.51701,1001.503
0.259863854,-0.1756534,-0.2213924,-0.07607486,0.01608109,0.9809576,0.160982,5.852084,-24.41538,-31.51701,1001.502
0.280047894,-0.05310292,0.1969889,-0.1981413,0.01069428,0.9876502,0.1620956,5.852084,-24.41538,-31.51701,1001.502
0.300231457,0.06944759,0.1969889,0.1070248,0.005001498,0.9798195,0.1614624,6.606385,-24.78525,-31.95305,1001.502
0.320415020,-0.1143782,-0.2213924,-0.1371081,0.005878501,0.9871473,0.1567402,6.606385,-24.78525,-31.95305,1001.502
0.340598583,0.2532734,-0.04208612,0.1070248,0.01078267,0.9804139,0.1590327,6.58533,-24.04817,-31.51418,1001.502
0.360782623,0.06944759,-0.1616236,0.04599158,0.02761828,0.9839439,0.1702694,6.58533,-24.04817,-31.51418,1001.502
0.380965710,0.008172336,0.01768263,-0.07607486,0.02281517,0.9825496,0.157111,6.58533,-24.04817,-31.51418,1001.5
0.398626328,0.06944759,0.1372201,-0.07607486,0.01075844,0.9822887,0.1653955,6.213853,-24.04712,-31.51566,1001.5
0.418810368,0.06944759,-0.1616236,-0.01504164,0.008818774,0.9833106,0.1571466,6.213853,-24.04712,-31.51566,1001.504
0.438993454,0.06944759,-0.2213924,-0.1371081,0.0130998,0.9881896,0.1601564,5.842378,-24.04607,-31.51714,1001.504
0.459177494,0.06944759,-0.1018549,-0.1371081,0.01126961,0.9798402,0.1687524,5.842378,-24.04607,-31.51714,1001.502
0.479360581,0.2532734,-0.2213924,-0.3202077,0.01268067,0.982734,0.1722137,5.842378,-24.04607,-31.51714,1001.502
0.499544621,0.008172336,-0.4006987,-0.1981413,0.01131133,0.9765028,0.1633338,6.575624,-23.67885,-31.51431,1001.494
0.519727707,0.2532734,-0.5800049,-0.3202077,0.06224125,0.9928765,0.151905,6.575624,-23.67885,-31.51431,1001.494
0.539911747,0.3758239,-0.5202362,-0.6253738,0.02970086,1.011113,0.1698308,6.225204,-24.41489,-31.95466,1001.492
0.560095310,0.4983744,-0.7593112,-0.5033074,0.03625122,0.9879282,0.1722819,6.225204,-24.41489,-31.95466,1001.492
0.580278874,0.4370991,-0.5800049,-0.381241,-0.004250888,0.9867847,0.1781577,6.225204,-24.41489,-31.95466,1001.492
0.600462914,0.6209249,-0.5800049,-0.5033074,0.005819282,0.9919474,0.1612146,6.236553,-24.78265,-32.39367,1001.492
0.620646000,0.6822002,-1.058155,-0.1371081,-0.006689165,0.9893541,0.1597219,6.236553,-24.78265,-32.39367,1001.496
0.640830040,0.1919981,-1.596074,-0.1371081,0.006423541,0.9816819,0.1712289,6.223559,-24.41643,-31.51553,1001.496
0.661013603,0.2532734,-1.356999,-0.381241,0.01377326,0.9720106,0.1802718,6.223559,-24.41643,-31.51553,1001.496
0.678674221,0.8047507,-0.1616236,-0.01504164,0.02372517,0.9867879,0.170818,6.223559,-24.41643,-31.51553,1001.496
0.698857784,1.049852,0.7946764,0.1070248,0.00502696,0.9780462,0.1448833,6.58533,-24.04817,-31.51418,1001.496
0.719041347,0.9273012,1.153289,0.2290912,-0.010045,0.9880295,0.1416969,6.58533,-24.04817,-31.51418,1001.498
0.739225388,0.8047507,0.5556014,0.1070248,-0.007756293,0.9983044,0.1350847,6.595036,-24.41748,-31.51406,1001.498
0.759408474,0.6209249,0.1372201,0.2901244,-0.001724604,0.9779171,0.1478102,6.595036,-24.41748,-31.51406,1001.496
0.779592514,0.6209249,0.1372201,0.4121909,0.003357529,0.9964542,0.1428171,6.595036,-24.41748,-31.51406,1001.496
0.819959640,0.3758239,1.033751,0.168058,0.01587448,0.91852,0.1539076,6.215497,-24.04557,-31.95479,1001.496
0.840142727,0.6209249,1.691208,0.2901244,0.03711176,0.9958337,0.2069847,6.223559,-24.41643,-31.51553,1001.496
0.860326767,0.9885765,2.229126,0.4732241,0.02301581,0.9652014,0.1966674,6.223559,-24.41643,-31.51553,1001.496
0.880509853,1.294953,2.288895,0.4732241,0.02176416,0.9889541,0.1937333,6.212444,-24.04844,-31.13926,1001.496
0.900693893,1.294953,2.109589,0.2901244,0.006510296,0.9743105,0.1817878,6.212444,-24.04844,-31.13926,1001.496
0.920877457,1.478778,1.691208,0.3511577,0.008898083,0.9762933,0.1808503,6.212444,-24.04844,-31.13926,1001.495
0.941061020,1.540054,2.04982,0.5342574,-0.003628321,0.975124,0.1823053,6.964867,-24.42007,-31.07344,1001.495
0.958721638,1.540054,2.229126,0.3511577,0.004535065,0.9782097,0.1765154,6.964867,-24.42007,-31.07344,1001.498
0.978905678,1.478778,1.870514,0.7783902,-0.01044932,0.9808891,0.177077,6.595036,-24.41748,-31.51406,1001.498
0.999088764,1.662604,1.691208,0.7783902,-0.01026028,0.9654913,0.1665536,6.595036,-24.41748,-31.51406,1001.5
1.019272804,1.723879,1.750977,1.022523,-0.004484815,1.005259,0.2203702,6.595036,-24.41748,-31.51406,1001.5
1.039456368,2.152806,2.109589,0.9614899,0.03050599,0.9835185,0.2174556,6.956806,-24.04922,-31.5127,1001.488
1.059639931,1.785155,2.767045,0.9614899,0.04388282,0.9540505,0.2285308,6.956806,-24.04922,-31.5127,1001.488
1.079823494,2.091531,2.826814,0.6563238,0.03994235,1.000382,0.2411317,6.966511,-24.41853,-31.51258,1001.492
1.100007534,2.275357,2.886583,0.717357,0.01917447,0.9635993,0.2058865,6.966511,-24.41853,-31.51258,1001.492
1.120190620,2.704283,1.810745,0.2290912,0.03363712,0.9644336,0.1922574,6.966511,-24.41853,-31.51258,1001.492
1.140374661,2.275357,1.750977,-0.1981413,0.03411986,1.003159,0.2455745,6.595036,-24.41748,-31.51406,1001.492
1.160557747,0.3758239,3.544039,0.2901244,0.08685227,0.9501786,0.2434753,6.595036,-24.41748,-31.51406,1001.492
1.180741787,-0.6045802,4.978489,0.1070248,0.04002997,1.031758,0.3020893,6.223559,-24.41643,-31.51553,1001.492
1.200924873,-0.9109564,8.564614,0.5952905,0.01492611,0.9952487,0.2327948,6.223559,-24.41643,-31.51553,1001.492
1.221108913,-1.217333,11.97143,2.548354,-0.05429904,0.8533776,0.4125586,6.223559,-24.41643,-31.51553,1001.492
1.238769531,0.06944759,12.92773,1.938021,-0.08642083,1.155515,0.4346429,6.58533,-24.04817,-31.51418,1001.491
1.258952618,-0.9109564,13.16681,0.7783902,0.06962527,1.017929,0.2750099,6.58533,-24.04817,-31.51418,1001.491
1.279136658,-3.423242,13.9438,1.022523,-0.01054528,0.946884,0.2834532,6.59668,-24.41594,-31.95318,1001.491
1.299320221,-1.156057,15.25872,2.731453,-0.07180141,0.9507205,0.09822951,6.59668,-24.41594,-31.95318,1001.491
1.319503784,1.049852,13.22658,0.5952905,-0.07061436,1.013523,0.02113026,6.59668,-24.41594,-31.95318,1001.495
1.339687824,3.929789,7.966928,0.7783902,0.03108745,1.094184,0.247867,7.328281,-24.05027,-31.51123,1001.495
1.359870911,3.13321,7.309471,1.571822,0.0555515,0.9475459,0.1690214,7.328281,-24.05027,-31.51123,1001.496
1.380054951,-1.891361,10.71629,2.365254,-0.002582414,1.010852,0.05017274,6.974808,-24.78917,-31.13605,1001.496
1.400238514,-4.035995,11.67259,1.938021,0.0300187,1.062385,0.276921,6.974808,-24.78917,-31.13605,1001.498
1.420422077,-1.278608,7.249702,1.266656,0.02600449,1.037871,0.1533353,7.709463,-24.42064,-31.50962,1001.498
1.440605641,1.233677,4.560108,0.6563238,0.0480704,0.8903352,0.06377053,7.709463,-24.42064,-31.50962,1001.498
1.460789681,0.6822002,4.619877,1.022523,0.03033661,0.9193108,0.1446569,7.709463,-24.42064,-31.50962,1001.498
1.480972767,1.540054,5.277333,0.4121909,-0.003985239,1.124668,0.1507179,7.709463,-24.42064,-31.50962,1001.5
1.498633385,1.662604,4.679646,0.5952905,0.001512025,0.9510714,0.07477267,7.709463,-24.42064,-31.50962,1001.5
1.518817425,-1.033507,5.337102,0.9614899,0.03138446,0.9126456,0.1343051,8.074521,-24.04928,-32.38653,1001.502
1.539000511,-0.4207545,5.337102,0.8394234,0.0588215,0.996933,0.1286342,8.074521,-24.04928,-32.38653,1001.502
1.559184551,-0.3594792,2.707276,0.168058,-0.02705987,0.9997365,0.1083791,8.074521,-24.04928,-32.38653,1001.502
1.579367638,-0.05310292,0.675139,-0.8695067,0.01325811,1.054391,0.1784969,7.337987,-24.41958,-31.5111,1001.502
1.599551678,-0.5433049,-1.476536,-1.052606,0.03566951,0.9961792,0.1700131,7.337987,-24.41958,-31.5111,1001.502
1.619734764,-3.423242,-0.1616236,-1.540872,0.02141948,0.9383726,0.1635375,7.709463,-24.42064,-31.50962,1001.502
1.639918804,-1.401159,-0.1018549,-0.8695067,0.03770688,0.9877211,0.1464866,7.709463,-24.42064,-31.50962,1001.502
1.660102367,1.968981,1.332595,-0.2591745,-0.003953842,1.044094,0.0673766,7.709463,-24.42064,-31.50962,1001.502
1.680285931,4.665092,-0.9983862,0.9004567,-0.1494153,0.9864361,0.1428431,7.318575,-23.68095,-31.51135,1001.5
1.700469971,1.785155,0.4360639,0.4732241,0.004572179,0.9764299,0.1117641,7.318575,-23.68095,-31.51135,1001.5
1.720653534,-0.2369287,-1.058155,-0.1981413,0.007815293,0.946242,0.1802572,7.337987,-24.41958,-31.5111,1001.498
1.740837097,-3.484517,1.332595,0.168058,0.001473298,0.912102,0.1932152,7.337987,-24.41958,-31.5111,1001.498
1.761020660,-2.810489,1.810745,0.168058,-0.005581186,0.9789332,0.08847236,7.337987,-24.41958,-31.5111,1001.498
1.778681278,0.9273012,1.511902,0.04599158,-0.0009438581,0.9550938,0.05636559,8.082582,-24.42014,-31.94727,1001.497
1.798864841,3.745963,1.810745,0.4121909,0.01276699,1.017882,0.04834298,8.082582,-24.42014,-31.94727,1001.497
1.819048405,3.623412,1.990052,0.4732241,0.01622437,1.048825,0.1579458,7.709463,-24.42064,-31.50962,1001.495
1.839232445,1.049852,2.288895,0.717357,-0.006033647,1.014246,0.1913551,7.709463,-24.42064,-31.50962,1001.495
1.859415531,-1.401159,2.587739,-0.01504164,0.04005874,0.9529054,0.1428745,7.709463,-24.42064,-31.50962,1001.493
1.879599571,-3.239416,3.00612,0.2901244,0.01215952,0.9862958,0.1542812,8.080938,-24.42168,-31.50814,1001.493
1.899782658,-1.952636,3.245195,1.083556,-0.01558617,1.00717,0.1576546,8.080938,-24.42168,-31.50814,1001.493
1.919966698,-0.5433049,3.245195,1.449756,0.004253239,0.9627741,0.1202528,8.082582,-24.42014,-31.94727,1001.493
1.940149784,-0.2369287,2.767045,0.2290912,0.01796604,0.9851073,0.1362455,8.082582,-24.42014,-31.94727,1001.497
1.960333824,0.1919981,1.332595,0.2901244,0.001964774,0.9921654,0.1334891,8.071233,-24.05237,-31.50827,1001.497
1.980516911,-0.05310292,1.213058,-0.381241,0.02286551,1.057276,0.1950839,8.071233,-24.05237,-31.50827,1001.497
2.000700951,0.1307229,0.6153702,0.04599158,0.03026698,1.003512,0.2042272,8.071233,-24.05237,-31.50827,1001.497
2.020884514,0.866026,0.4958327,0.04599158,0.006001832,0.938306,0.09835619,8.090644,-24.791,-31.50801,1001.495
2.041068077,2.091531,-0.2213924,0.2290912,-0.007889711,1.009575,0.1221701,8.090644,-24.791,-31.50801,1001.495
2.058728695,2.520458,0.1372201,-0.2591745,0.04994461,1.013504,0.105619,8.452414,-24.42274,-31.50666,1001.495
2.078912735,0.8047507,0.6153702,0.1070248,0.01784778,0.9947219,0.1437348,8.452414,-24.42274,-31.50666,1001.495
2.099096298,0.008172336,1.09352,-0.5033074,0.02508855,0.9944656,0.1315544,8.452414,-24.42274,-31.50666,1001.494
2.119279861,-0.7271307,1.452133,-0.5033074,0.01350288,0.955582,0.1264225,7.712751,-24.41755,-32.38788,1001.494
2.139463425,-1.217333,2.04982,-0.2591745,0.007774451,0.9892985,0.1869484,7.712751,-24.41755,-32.38788,1001.494
2.159646988,-1.462434,2.109589,-0.381241,-0.003791669,0.9887679,0.1743036,7.709463,-24.42064,-31.50962,1001.494
2.179830551,-1.033507,1.452133,-0.5643406,0.006647684,0.9633682,0.1616209,7.709463,-24.42064,-31.50962,1001.499
2.200014591,-0.2369287,0.9739827,0.2290912,0.001254594,0.9705114,0.1661495,7.709463,-24.42064,-31.50962,1001.499
2.220197678,0.7434754,1.511902,0.1070248,-0.00570187,0.987378,0.1650338,8.452414,-24.42274,-31.50666,1001.498
2.240381718,2.152806,1.870514,0.3511577,0.01729552,1.000561,0.140445,8.452414,-24.42274,-31.50666,1001.498
2.260564804,1.785155,2.229126,0.168058,0.0001256893,1.023696,0.1759623,8.071233,-24.05237,-31.50827,1001.499
2.280748844,0.8047507,2.946352,0.168058,0.01078512,0.9409699,0.13003,8.071233,-24.05237,-31.50827,1001.499
2.300931931,0.1919981,3.783114,1.144589,-0.002384664,0.9922956,0.1626933,8.071233,-24.05237,-31.50827,1001.498
2.318592548,-0.4207545,4.739414,1.449756,-0.00598529,1.010487,0.1796026,7.709463,-24.42064,-31.50962,1001.498
2.338776589,-0.7884059,4.978489,1.083556,0.0208769,0.9440409,0.1286162,7.709463,-24.42064,-31.50962,1001.498
2.358960629,-0.8496812,5.217565,1.083556,0.03217651,0.9661693,0.1616389,8.069589,-24.05391,-31.06914,1001.498
2.379143715,-0.1143782,5.815252,0.717357,0.03801616,1.001548,0.1696293,8.069589,-24.05391,-31.06914,1001.496
2.399327755,0.866026,4.44057,1.022523,-0.02830493,0.9824491,0.1396669,8.069589,-24.05391,-31.06914,1001.496
2.419510841,0.6209249,3.842883,0.3511577,0.004341554,0.9942077,0.1753725,8.071233,-24.05237,-31.50827,1001.5
2.439694882,0.3758239,2.408433,0.168058,0.01756764,0.9774873,0.1711295,8.071233,-24.05237,-31.50827,1001.5
2.459878445,-0.6045802,1.392364,0.4121909,0.01662771,0.9756225,0.1623354,8.082582,-24.42014,-31.94727,1001.5
2.480062008,-0.7884059,0.6153702,-0.01504164,0.02397609,0.9658401,0.1825677,8.082582,-24.42014,-31.94727,1001.5
2.500245571,-1.033507,-0.7593112,-0.5033074,0.03915035,0.9874771,0.1732419,7.711107,-24.41909,-31.94875,1001.502
2.520429611,-1.094782,-1.894918,-0.6253738,0.0423383,0.9633942,0.1635154,7.711107,-24.41909,-31.94875,1001.502
2.540612698,-0.9109564,-1.117924,-0.7474403,0.03122297,0.9651187,0.1684317,7.711107,-24.41909,-31.94875,1001.502
2.560796738,0.6209249,1.272827,-0.686407,0.04569506,1.00541,0.1336871,8.082582,-24.42014,-31.94727,1001.502
2.580979824,2.091531,1.511902,-0.8084735,-0.0053699,0.9218498,0.07955689,8.082582,-24.42014,-31.94727,1001.502
2.598640442,2.826834,2.288895,-0.4422742,-0.02417522,1.000027,0.1322234,7.711107,-24.41909,-31.94875,1001.502
2.618824482,2.030256,2.348664,-0.01504164,-0.05124325,1.043745,0.1783809,7.711107,-24.41909,-31.94875,1001.503
2.639007569,-0.1756534,0.1969889,0.1070248,-0.02956137,0.9661592,0.168055,7.711107,-24.41909,-31.94875,1001.503
2.659191608,-1.401159,-0.5800049,-0.3202077,-0.00564202,0.9429843,0.1466379,8.463764,-24.7905,-31.94566,1001.505
2.679374695,-1.094782,-0.8788487,-0.01504164,0.04369956,0.9699262,0.1908915,8.463764,-24.7905,-31.94566,1001.505
2.699558735,0.1307229,1.213058,0.717357,0.0129455,1.000643,0.1745141,8.454058,-24.42119,-31.94579,1001.507
2.719741821,0.5596497,4.022189,1.205623,0.0298129,1.001954,0.1652701,8.454058,-24.42119,-31.94579,1001.507
2.739925861,0.4370991,4.978489,1.815955,0.03355801,0.9724374,0.1179681,8.454058,-24.42119,-31.94579,1001.507
2.760109901,0.866026,5.695714,1.266656,-0.03723558,0.9636551,0.1159519,8.101994,-25.15877,-31.94701,1001.507
2.780292988,1.294953,4.619877,0.6563238,-0.03573294,1.076574,0.2135555,8.101994,-25.15877,-31.94701,1001.507
2.800477028,1.111127,2.229126,0.9614899,0.0190959,1.011293,0.1357889,8.080938,-24.42168,-31.50814,1001.507
2.820660591,0.4370991,1.990052,1.144589,0.02108216,0.9667208,0.1383099,8.080938,-24.42168,-31.50814,1001.507
2.840844154,0.2532734,2.109589,1.205623,0.01819168,1.005594,0.1716849,8.080938,-24.42168,-31.50814,1001.505
2.861027718,0.3145486,2.169358,1.144589,0.0703328,1.001659,0.157906,7.690051,-23.68201,-31.50988,1001.505
2.878688335,-0.6658554,3.065889,1.022523,0.019191,0.9630265,0.165975,7.690051,-23.68201,-31.50988,1001.502
2.898872375,-1.64626,2.707276,1.083556,-0.01391206,0.9088882,0.1523009,8.442708,-24.05342,-31.50679,1001.502
2.919055462,-0.1143782,3.48427,1.144589,-0.003146666,1.01473,0.1957397,8.442708,-24.05342,-31.50679,1001.504
2.939239502,2.152806,4.141727,1.266656,0.01538463,1.038759,0.1455831,8.442708,-24.05342,-31.50679,1001.504
2.959422588,3.01066,5.038258,1.754922,-0.01012571,0.9949312,0.1296689,8.061527,-23.68306,-31.5084,1001.505
2.979606628,0.7434754,5.875021,1.327689,0.03110311,0.9349563,0.1804862,8.061527,-23.68306,-31.5084,1001.505
2.999789715,-1.462434,5.516408,1.327689,0.08791513,0.942815,0.2058609,8.431593,-23.68543,-31.13052,1001.5
3.019973755,-2.871765,6.472708,1.083556,0.05377593,0.8953402,0.1538797,8.431593,-23.68543,-31.13052,1001.5
3.040156841,-2.259012,7.249702,1.510789,0.02044765,0.9783639,0.184767,8.431593,-23.68543,-31.13052,1001.5
3.060340881,2.888109,6.831321,0.5342574,-0.01266375,1.085028,0.1285363,8.426585,-23.3117,-32.38531,1001.5
3.080524921,5.890597,2.886583,0.3511577,-0.03558096,1.066839,0.07176588,8.426585,-23.3117,-32.38531,1001.494
3.100708008,3.745963,1.57167,0.4732241,0.03953791,0.9951711,0.1797192,8.815828,-24.05293,-31.94444,1001.494
3.120892048,0.008172336,-0.8190799,-0.686407,0.09450188,0.9564673,0.2070946,8.815828,-24.05293,-31.94444,1001.494
3.141075134,-2.259012,-3.20983,-0.7474403,0.06303485,0.9672372,0.1489635,9.122337,-24.05667,-31.12768,1001.494
3.158735752,-3.361967,-3.568443,-1.479839,0.0258325,0.972479,0.1510682,9.122337,-24.05667,-31.12768,1001.498
3.178919792,-1.830085,-3.20983,-1.235706,0.01358232,1.108128,0.134794,9.122337,-24.05667,-31.12768,1001.498
3.199103355,2.152806,-3.867287,-1.357772,0.009512893,1.007515,0.06274019,8.814184,-24.05447,-31.50531,1001.498
3.219286919,1.478778,-1.117924,-1.785005,0.003132313,0.9353876,0.1440418,8.814184,-24.05447,-31.50531,1001.498
3.239470482,0.06944759,0.6153702,-0.5033074,0.05837803,0.9527285,0.1880967,8.434647,-23.68256,-31.94605,1001.5
3.259654522,-0.4820297,2.946352,0.2901244,-0.02682742,1.017877,0.2337905,8.434647,-23.68256,-31.94605,1001.5
3.279837608,-1.891361,4.858952,1.022523,-0.0491548,0.9901693,0.2094322,8.434647,-23.68256,-31.94605,1001.494
3.300021648,-1.156057,5.456639,1.449756,-0.08543214,0.9196578,0.1808411,8.814184,-24.05447,-31.50531,1001.494
3.320204735,0.4370991,4.739414,1.144589,-0.01995865,1.008305,0.2321313,8.814184,-24.05447,-31.50531,1001.496
3.340388775,2.765559,3.424501,0.1070248,0.04332321,1.079188,0.2636096,8.806122,-23.68361,-31.94457,1001.496
3.360571861,3.868513,5.516408,1.999055,0.1244588,0.9926814,0.166894,8.806122,-23.68361,-31.94457,1001.496
3.380755901,0.9273012,7.907159,1.876988,0.009625809,0.7586141,0.09674084,8.806122,-23.68361,-31.94457,1001.496
3.400939941,1.172402,9.102533,2.48732,-0.09322253,0.9656168,0.1764096,8.433002,-23.68411,-31.50692,1001.498
3.418600559,3.868513,9.75999,1.999055,-0.0709042,1.036101,0.0892131,8.433002,-23.68411,-31.50692,1001.498
3.438783646,1.478778,9.401378,1.449756,0.07855508,0.9593015,0.1906301,8.82389,-24.42379,-31.50518,1001.499
3.458967686,-0.3594792,8.863459,2.48732,0.06780728,1.010589,0.1819292,8.82389,-24.42379,-31.50518,1001.499
3.479150772,-5.812977,10.8956,1.938021,0.0489863,0.9714436,0.1923736,8.82389,-24.42379,-31.50518,1001.495
3.499334812,-6.977207,10.83583,1.327689,0.04722559,0.9175579,0.2000683,9.858637,-23.68659,-31.94038,1001.495
3.519517899,-0.4207545,9.281839,2.48732,-0.07774441,0.9638956,0.08000869,9.858637,-23.68659,-31.94038,1001.495
3.539701939,4.358716,8.743921,2.731453,0.008119991,1.004184,0.005745657,9.127035,-24.05226,-32.38234,1001.495
3.559885502,6.258248,8.086465,1.022523,0.1016436,1.005121,0.1486834,9.127035,-24.05226,-32.38234,1001.495
3.580069065,2.030256,8.445077,1.205623,0.05191844,0.9292281,0.1540666,9.127035,-24.05226,-32.38234,1001.495
3.600252628,-1.523709,9.999064,1.938021,-0.01258565,0.9193272,0.1276896,8.814184,-24.05447,-31.50531,1001.499
3.620436669,-1.830085,9.102533,0.4121909,0.02133119,1.1042,0.2003941,8.814184,-24.05447,-31.50531,1001.499
3.640619755,0.4370991,10.29791,1.632855,0.02772827,0.9369079,0.07640022,9.125391,-24.0538,-31.94321,1001.501
3.660803795,0.4983744,11.01513,2.365254,-0.03032364,0.8715727,0.07957163,9.125391,-24.0538,-31.94321,1001.501
3.680986881,2.214082,8.80369,-0.2591745,0.05272852,1.140887,0.1636069,9.495223,-24.0564,-31.5026,1001.503
3.698647976,4.848917,7.727852,0.4732241,0.03645821,1.013659,0.02097577,9.495223,-24.0564,-31.5026,1001.503
3.718831539,0.866026,7.249702,-0.07607486,0.01998833,0.9376962,0.1318981,9.495223,-24.0564,-31.5026,1001.505
3.739015579,-1.156057,7.488777,0.1070248,0.06596808,0.9637883,0.1591092,9.495223,-24.0564,-31.5026,1001.505
3.759198666,-1.584984,7.189933,0.5952905,0.03654115,0.964388,0.1523521,9.495223,-24.0564,-31.5026,1001.506
3.779382706,-0.3594792,8.445077,0.1070248,-0.05896566,1.005368,0.1280008,9.858637,-23.68659,-31.94038,1001.506
3.799565792,-1.094782,7.488777,1.693888,-0.02273785,1.000248,0.1609342,9.858637,-23.68659,-31.94038,1001.51
3.819749832,-0.2369287,8.743921,1.449756,0.01398571,1.034931,0.1386972,9.858637,-23.68659,-31.94038,1001.51
3.839932919,2.030256,10.23814,2.121121,-0.007362962,0.9668296,0.08482932,10.23011,-23.68764,-31.9389,1001.51
3.860116959,2.520458,11.43351,2.060088,-0.03438804,1.007311,0.115352,10.23011,-23.68764,-31.9389,1001.51
3.880300522,1.968981,10.77606,1.693888,0.0556417,0.9801059,0.1594474,9.860281,-23.68504,-32.37951,1001.51
3.900484085,-0.05310292,10.8956,1.754922,0.03101261,0.9043111,0.09472715,9.860281,-23.68504,-32.37951,1001.509
3.920667648,0.1919981,11.79213,1.999055,-0.02236803,1.05,0.1283439,9.860281,-23.68504,-32.37951,1001.509
3.940851212,-0.5433049,10.95537,2.060088,-0.0112386,1.006886,0.1440182,10.23011,-23.68764,-31.9389,1001.507
3.961034775,-1.891361,9.640452,1.693888,0.06875674,0.9726267,0.1514947,10.23011,-23.68764,-31.9389,1001.507
3.978695869,-0.6045802,8.206002,1.083556,-0.003846491,0.9552552,0.08459508,10.61129,-24.05801,-31.93729,1001.507
3.998879433,1.049852,4.380802,1.449756,-0.002733218,0.8640411,0.04970028,10.61129,-24.05801,-31.93729,1001.507
4.019062996,0.3758239,2.52797,0.3511577,0.0144119,0.9993849,0.1569699,10.61129,-24.05801,-31.93729,1001.507
4.039246559,2.091531,1.392364,0.5952905,0.0448527,1.034774,0.1517866,10.60323,-23.68715,-32.37655,1001.507
4.059430599,0.3145486,4.081958,1.632855,0.04699623,0.9779946,0.1151389,10.60323,-23.68715,-32.37655,1001.507
4.079613686,-0.4207545,5.217565,1.693888,-0.01850048,0.9299839,0.1191507,10.22205,-23.31678,-32.37816,1001.507
4.099797726,-0.2982039,2.04982,1.388722,-0.05629249,0.9834339,0.1450799,10.22205,-23.31678,-32.37816,1001.503
4.119980812,0.06944759,-0.1018549,1.815955,0.003554906,1.020422,0.1204216,10.22205,-23.31678,-32.37816,1001.503
4.140164852,0.7434754,-0.8190799,0.6563238,0.07402185,1.095171,0.163644,10.22041,-23.31833,-31.93903,1001.505
4.160347939,0.9885765,-2.552374,0.04599158,0.0418578,0.9644989,0.1002817,10.22041,-23.31833,-31.93903,1001.505
4.180531979,-0.1143782,-2.910986,0.168058,0.004097277,0.9760591,0.09959276,10.59188,-23.31938,-31.93755,1001.504
4.200715065,0.4370991,-5.062662,-0.3202077,0.04040236,1.005339,0.0840616,10.59188,-23.31938,-31.93755,1001.504
4.220899105,0.06944759,-7.154568,-1.723972,0.04629225,0.996499,0.1048012,10.59188,-23.31938,-31.93755,1001.504
4.241082668,-0.3594792,-8.349943,-2.273271,0.06348823,0.9706767,0.09599295,10.96171,-23.32197,-31.49694,1001.504
4.258743763,-0.4207545,-7.99133,-2.151204,0.07289652,0.9900684,0.1090142,10.96171,-23.32197,-31.49694,1001.502
4.278926849,0.3758239,-5.182199,-1.11364,0.05158181,0.9179876,0.1144311,10.59024,-23.32092,-31.49842,1001.502
4.299110890,0.5596497,-3.20983,-2.029138,0.02135529,1.023023,0.1778642,10.59024,-23.32092,-31.49842,1001.5
4.319293976,-1.584984,-1.536305,-1.235706,0.04006605,0.9912165,0.1883987,10.59024,-23.32092,-31.49842,1001.5
4.339478016,-3.729618,0.1372201,-0.8084735,0.01485887,0.9616796,0.1975829,10.21232,-23.01056,-31.93914,1001.498
4.359661579,-4.648747,1.332595,-0.8695067,-0.01553508,0.9620526,0.2122325,10.21232,-23.01056,-31.93914,1001.498
4.379845142,-1.891361,2.348664,-0.01504164,-0.03915843,0.9621896,0.1631246,10.21068,-23.01211,-31.50001,1001.501
4.400028706,2.581733,5.098027,-0.07607486,-0.03726393,1.123774,0.1911357,10.21068,-23.01211,-31.50001,1001.501
4.420212746,4.542541,5.576177,0.6563238,-0.0303472,1.110409,0.1811294,10.23011,-23.68764,-31.9389,1001.501
4.440395832,2.336632,5.994558,1.510789,-0.00716174,0.9495297,0.1195209,10.23011,-23.68764,-31.9389,1001.501
4.460579872,-1.033507,4.918721,0.9004567,0.007293139,1.028043,0.2368612,10.23011,-23.68764,-31.9389,1001.501
4.480762959,-2.687939,2.826814,0.4732241,0.04203523,1.066109,0.2614063,10.97142,-23.69129,-31.49681,1001.501
4.500946999,-3.668343,3.185426,0.04599158,0.02377471,0.9425117,0.1894051,10.97142,-23.69129,-31.49681,1001.501
4.518607617,-1.830085,5.755483,1.571822,-0.03084824,0.9928179,0.1651784,10.23011,-23.68764,-31.9389,1001.501
4.538790703,3.317036,6.652015,2.060088,-0.02978027,1.065168,0.1023793,10.23011,-23.68764,-31.9389,1001.501
4.558974743,4.848917,5.93479,1.632855,-0.01002508,1.025445,0.1799045,10.23011,-23.68764,-31.9389,1001.501
4.579158783,2.643008,1.631439,0.4121909,0.04505988,1.016028,0.2346216,10.59514,-23.37938,-32.37666,1001.501
4.599341869,-2.320287,1.870514,-0.3202077,0.0771058,0.8797742,0.1948973,10.59514,-23.37938,-32.37666,1001.501
4.619525910,-4.09727,2.52797,0.5952905,0.05241089,1.006462,0.2329617,10.60965,-24.05955,-31.49817,1001.499
4.639708996,-2.136461,2.468201,0.1070248,0.0157483,1.00871,0.1469342,10.60965,-24.05955,-31.49817,1001.499
4.659893036,-1.64626,3.364733,1.632855,0.000189598,0.9786683,0.1726381,10.60965,-24.05955,-31.49817,1001.499
4.680076122,0.6822002,4.619877,0.6563238,0.05353276,0.9952515,0.1436929,10.59188,-23.31938,-31.93755,1001.499
4.700260162,4.29744,1.870514,-0.5033074,0.01941217,1.104021,0.1668189,10.59188,-23.31938,-31.93755,1001.499
4.720443726,3.317036,-0.8190799,-0.4422742,0.0569854,0.9880959,0.1863658,10.59188,-23.31938,-31.93755,1001.499
4.740627289,-1.584984,-0.5202362,-0.7474403,0.04211169,0.9022117,0.1764159,10.59188,-23.31938,-31.93755,1001.499
4.760810852,-5.935527,-0.2811612,-0.4422742,0.020507,0.9329596,0.2193892,10.59188,-23.31938,-31.93755,1001.499
4.780994892,-3.729618,1.153289,0.8394234,-0.004862205,1.038052,0.1378134,10.97471,-23.6882,-32.37508,1001.499
4.798655510,3.13321,-0.9983862,0.1070248,-0.01754402,1.051183,0.06510392,10.97471,-23.6882,-32.37508,1001.499
4.818838596,5.094018,0.7349077,-0.9305399,0.03340395,1.063231,0.196646,10.59517,-23.31629,-32.81581,1001.499
4.839022636,5.094018,-0.5202362,0.4732241,0.01320463,0.9794038,0.1667945,10.59517,-23.31629,-32.81581,1001.499
4.859206676,0.3145486,-0.04208612,-0.1981413,0.01770685,1.006342,0.1444515,10.59517,-23.31629,-32.81581,1001.499
4.879389763,-3.300691,-2.910986,-0.4422742,0.0008699736,1.042352,0.1524877,10.22847,-23.68919,-31.49977,1001.499
4.899573803,-3.790894,-5.421274,-1.479839,0.01712416,0.9777746,-0.005008558,10.22847,-23.68919,-31.49977,1001.499
4.919756889,-3.668343,-4.106361,-1.174673,0.0797523,1.060652,0.135217,11.33648,-23.31993,-32.37373,1001.499
4.939940929,-0.4820297,-1.416767,0.7783902,0.05063679,0.9176418,0.05019619,11.33648,-23.31993,-32.37373,1001.499
4.960124016,1.785155,2.52797,0.7783902,0.002865308,0.8795925,0.05340596,10.60159,-23.68869,-31.93742,1001.499
4.980308056,2.336632,3.783114,-0.686407,-0.03188746,1.07658,0.2675611,10.60159,-23.68869,-31.93742,1001.499
5.000491142,2.459183,4.44057,-0.01504164,-0.01800832,1.007194,0.2004783,10.60159,-23.68869,-31.93742,1001.499
5.020675182,-2.994315,5.337102,1.083556,-0.01226461,0.8915711,0.1908827,10.97471,-23.6882,-32.37508,1001.499
5.040858746,-7.038482,6.054327,1.144589,-0.05713019,0.9715989,0.2134557,10.97471,-23.6882,-32.37508,1001.503
5.061042309,-4.21982,3.48427,0.3511577,-0.009421664,1.016078,0.1480901,10.965,-23.31888,-32.3752,1001.503
5.078702927,1.233677,-0.7593112,0.168058,0.01232084,1.171684,0.1735209,10.965,-23.31888,-32.3752,1001.499
5.098886490,5.094018,-3.030524,-0.9915732,0.07030281,1.084288,0.131806,10.965,-23.31888,-32.3752,1001.499
5.119070053,3.071935,-2.612143,-0.07607486,0.09783046,1.001001,0.1675844,10.23176,-23.6861,-32.37803,1001.503
5.139254093,-1.707535,-1.29723,-0.8084735,0.09858763,1.05746,0.1920568,10.23176,-23.6861,-32.37803,1001.503
5.159437656,-3.913444,-0.2213924,-1.479839,0.07643618,0.9765324,0.111174,10.60159,-23.68869,-31.93742,1001.505
5.179621220,-2.565388,1.57167,-0.9305399,0.00799322,0.9724798,0.1243321,10.60159,-23.68869,-31.93742,1001.505
5.199804783,0.1919981,2.647508,-1.052606,-0.008165346,0.9927118,0.112105,10.60159,-23.68869,-31.93742,1001.503
5.219988823,0.3758239,3.842883,-0.7474403,0.03130819,0.9199141,0.08530378,10.22205,-23.31678,-32.37816,1001.503
5.240171909,-0.7271307,4.321033,-0.3202077,0.02527378,1.019368,0.1125835,10.22205,-23.31678,-32.37816,1001.503
5.260355949,-0.8496812,6.652015,0.4121909,-0.04766707,1.028381,0.1206543,10.59517,-23.31629,-32.81581,1001.503
5.280539036,-1.094782,7.787621,0.9614899,-0.001279383,0.9420059,0.1052523,10.59517,-23.31629,-32.81581,1001.503
5.300723076,-0.6045802,8.32554,1.266656,-0.06501663,0.9468074,0.1609118,10.59517,-23.31629,-32.81581,1001.503
5.320906162,0.4983744,7.070396,2.365254,-0.06374106,1.001417,0.1284162,10.59514,-23.37938,-32.37666,1001.503
5.341090202,0.4370991,5.93479,1.938021,-0.005149473,0.9825208,0.1182245,10.59514,-23.37938,-32.37666,1001.503
5.358750820,0.3145486,3.00612,1.510789,0.01335593,1.007318,0.1371784,10.59514,-23.37938,-32.37666,1001.503
5.378933907,1.356228,0.4958327,0.9614899,0.01208336,0.993574,0.104307,10.59514,-23.37938,-32.37666,1001.503
5.399117947,2.643008,-0.8788487,1.083556,0.05089006,0.9365339,0.05105631,10.59514,-23.37938,-32.37666,1001.503
5.419301510,2.397907,-0.3409299,0.5952905,0.05545426,0.9569593,0.09913936,10.95527,-23.01266,-31.93618,1001.503
5.439485073,1.233677,0.8544452,1.022523,0.02293472,0.9730411,0.1389189,10.95527,-23.01266,-31.93618,1001.503
5.459669113,-0.1143782,1.392364,0.4732241,0.05475257,1.01336,0.1761642,11.32839,-23.01217,-32.37383,1001.503
5.479852200,-0.8496812,1.631439,0.168058,0.06093067,0.9818066,0.1424427,11.32839,-23.01217,-32.37383,1001.501
5.500036240,-1.952636,2.468201,-0.07607486,0.01983433,0.9898201,0.1523934,10.96662,-23.38044,-32.37518,1001.501
5.520219803,-0.6658554,2.468201,0.4121909,0.01360617,0.9872845,0.10564,10.96662,-23.38044,-32.37518,1001.501
5.540403366,-0.8496812,3.603808,-0.1371081,-0.001475221,0.9974576,0.1321392,10.96662,-23.38044,-32.37518,1001.501
5.560586929,0.6822002,3.304964,-0.01504164,-0.0138185,1.021017,0.132137,10.59353,-23.31783,-32.37668,1001.501
5.580770970,1.049852,2.946352,0.3511577,-0.02544959,1.02578,0.1230032,10.59353,-23.31783,-32.37668,1001.501
5.600954056,-0.05310292,3.902652,0.5952905,0.01362174,0.9856624,0.1226384,11.35589,-24.05856,-32.37347,1001.503
5.618614674,-0.1756534,3.723345,0.717357,0.01989937,0.9845308,0.1483959,11.35589,-24.05856,-32.37347,1001.503
5.638798714,-0.8496812,5.217565,0.717357,0.03388426,0.9847577,0.1464335,11.35589,-24.05856,-32.37347,1001.503
5.658981800,-0.9722317,7.668083,1.205623,0.04336268,0.9586664,0.153202,10.95691,-23.01112,-32.37531,1001.503
5.679165840,0.008172336,9.520915,1.388722,0.01465289,0.9795556,0.1536576,10.95691,-23.01112,-32.37531,1001.499
5.699349880,0.9885765,10.17837,2.304221,-0.04259369,0.9678729,0.1223689,10.97635,-23.68665,-32.81421,1001.499
5.719532967,1.417503,9.102533,2.243188,-0.04771427,0.9925901,0.114107,10.97635,-23.68665,-32.81421,1001.501
5.739717007,1.723879,6.173864,1.754922,-0.01024693,1.083593,0.1791093,10.97635,-23.68665,-32.81421,1001.501
5.759900093,-0.05310292,3.96242,1.876988,0.01228838,0.9746488,0.2051421,10.95691,-23.01112,-32.37531,1001.501
5.780084133,-1.401159,4.321033,1.205623,-0.04316302,0.9732692,0.212495,10.95691,-23.01112,-32.37531,1001.501
5.800267219,-2.565388,4.858952,2.121121,0.009625042,0.9567799,0.146402,12.02722,-23.69117,-32.37088,1001.501
5.820451260,-1.156057,5.456639,2.304221,0.05123503,0.9852005,0.1765852,12.02722,-23.69117,-32.37088,1001.501
5.840634346,1.172402,5.396871,2.060088,0.08989929,0.979301,0.1452701,12.02722,-23.69117,-32.37088,1001.501
5.860818386,2.459183,4.380802,1.632855,0.05424738,0.9756867,0.1632546,11.70793,-23.38408,-31.93309,1001.501
5.881001949,2.030256,4.619877,1.266656,0.0412119,0.9771396,0.1438391,11.70793,-23.38408,-31.93309,1001.501
5.898662567,0.6209249,5.576177,0.3511577,0.0535538,1.032758,0.1726571,11.34783,-23.6877,-32.81273,1001.501
5.918846130,-0.1756534,6.353171,0.7783902,0.0553852,1.001562,0.1452748,11.34783,-23.6877,-32.81273,1001.499
5.939029694,-1.584984,7.249702,0.6563238,0.06271975,1.032221,0.19161,11.34783,-23.6877,-32.81273,1001.499
5.959213734,-1.401159,7.309471,0.5952905,0.02567571,1.024371,0.1949151,11.3381,-23.38148,-32.3737,1001.499
5.979397297,-1.707535,7.966928,0.9614899,0.01507712,0.9448175,0.139345,11.3381,-23.38148,-32.3737,1001.497
5.999580860,-1.401159,8.206002,0.7783902,-0.02301007,0.9826983,0.1712922,12.01749,-23.38496,-31.93186,1001.497
6.019764900,-0.2982039,7.189933,0.8394234,-0.01286149,0.9817383,0.1367106,12.01749,-23.38496,-31.93186,1001.497
6.039947987,1.723879,5.098027,0.7783902,0.01465965,1.01879,0.1549207,12.01749,-23.38496,-31.93186,1001.497
6.060132027,0.9273012,3.842883,0.168058,0.03339776,1.06272,0.2482141,11.31868,-22.64286,-32.37396,1001.497
6.080315113,-0.6045802,3.96242,0.3511577,0.008882724,0.9769626,0.211032,11.31868,-22.64286,-32.37396,1001.497
6.100499153,-0.6658554,5.337102,0.2901244,0.01817615,0.9279274,0.1370599,11.71122,-23.38099,-32.81135,1001.502
6.120682240,-0.2369287,5.576177,0.1070248,0.04920048,1.033537,0.1853302,11.71122,-23.38099,-32.81135,1001.502
6.140866280,1.111127,6.293402,0.4732241,0.02897997,0.9914816,0.145114,11.69987,-23.01322,-32.37235,1001.5
6.161049366,0.9273012,6.891089,0.2290912,0.027513,1.071985,0.1846632,11.69987,-23.01322,-32.37235,1001.5
6.178709984,1.601329,6.472708,1.205623,-0.007455769,1.052992,0.1420056,11.69987,-23.01322,-32.37235,1001.502
6.198894024,0.3145486,7.84739,0.7783902,0.05600183,0.9130266,0.03501279,11.3381,-23.38148,-32.3737,1001.502
6.219077587,0.008172336,8.32554,1.327689,0.07161265,0.9367129,0.1128259,11.3381,-23.38148,-32.3737,1001.503
6.239261150,0.1919981,8.624383,1.144589,0.04476674,0.9629199,0.1172767,12.01107,-23.01255,-32.81025,1001.503
6.259445190,1.233677,9.281839,0.9614899,0.03204881,0.9779127,0.1010482,12.01107,-23.01255,-32.81025,1001.503
6.279628277,1.172402,10.29791,1.266656,-0.000658195,1.009523,0.1382158,12.01107,-23.01255,-32.81025,1001.503
6.299812317,-0.1756534,11.13467,0.8394234,-0.0149625,0.9559547,0.1439888,12.75238,-23.0162,-32.36816,1001.499
6.319995880,-0.2982039,9.281839,1.571822,-0.05672747,0.9795762,0.1425713,12.75238,-23.0162,-32.36816,1001.499
6.340179443,0.8047507,8.086465,1.754922,-0.01388875,1.026843,0.1307926,12.3712,-22.64583,-32.36977,1001.499
6.360363007,0.6822002,6.472708,1.510789,0.04237139,0.9612814,0.132332,12.3712,-22.64583,-32.36977,1001.499
6.380547047,-0.2369287,5.93479,1.754922,-0.002030403,0.9634084,0.1446039,12.3712,-22.64583,-32.36977,1001.499
6.400730133,-0.6658554,6.353171,1.388722,0.05462181,1.02388,0.189997,12.37926,-23.01669,-31.93051,1001.499
6.420914173,0.5596497,6.652015,1.144589,0.0582806,1.000802,0.1773702,12.37926,-23.01669,-31.93051,1001.501
6.438574791,1.233677,7.787621,1.327689,0.04170354,1.015632,0.171849,13.13356,-23.38657,-32.36656,1001.501
6.458757877,1.662604,7.309471,1.083556,0.01753583,1.02032,0.1515406,13.13356,-23.38657,-32.36656,1001.501
6.478941918,0.3145486,7.608315,0.7783902,0.07021325,0.9715202,0.167528,13.13356,-23.38657,-32.36656,1001.501
6.499125004,-0.3594792,8.504846,1.022523,-0.001313826,0.9826824,0.2053211,13.14001,-23.69587,-31.92732,1001.499
6.519309044,-0.9722317,8.982996,1.022523,0.003569438,0.9780989,0.1862463,13.14001,-23.69587,-31.92732,1001.499
6.539493084,-1.094782,8.564614,1.022523,-0.007592563,0.9837223,0.188807,13.50504,-23.38762,-32.36508,1001.499
6.559676170,-0.1756534,8.624383,0.9614899,-0.01066672,0.9204693,0.1131118,13.50504,-23.38762,-32.36508,1001.499
6.579860211,1.662604,9.281839,1.327689,0.02755119,0.9513564,0.08495841,13.50504,-23.38762,-32.36508,1001.501
6.600043297,1.172402,10.05883,1.083556,0.1086446,0.9841775,0.170155,13.14329,-23.69278,-32.80558,1001.501
6.620227337,0.9273012,10.17837,1.632855,0.02409965,0.9953395,0.1885038,13.14329,-23.69278,-32.80558,1001.501
6.640410423,0.7434754,11.01513,1.083556,0.01307181,0.9520476,0.09131897,13.51148,-23.69692,-31.92584,1001.501
6.660594463,-0.4207545,10.65652,1.266656,0.02288582,1.015431,0.2127459,13.51148,-23.69692,-31.92584,1001.503
6.680778027,1.478778,10.53698,1.632855,0.01086539,1.05297,0.1716601,13.14165,-23.69433,-32.36645,1001.503
6.700961590,1.417503,11.73236,1.632855,-0.009292725,0.9657614,0.1407685,13.14165,-23.69433,-32.36645,1001.503
6.718622208,0.008172336,13.70473,2.48732,-0.03785504,1.013279,0.1923559,13.14165,-23.69433,-32.36645,1001.503
6.738805771,1.417503,13.28635,2.609387,-0.01708392,1.0513,0.151718,13.86681,-23.01935,-32.36373,1001.503
6.758989811,1.111127,13.28635,2.182154,0.03236584,1.068764,0.2235193,13.86681,-23.01935,-32.36373,1001.503
6.779173374,-0.5433049,13.22658,1.876988,0.07533249,0.9863387,0.1955492,14.23993,-23.01886,-32.80138,1001.503
6.799356937,-2.442838,14.84033,2.304221,-0.007520282,1.016739,0.2308202,14.23993,-23.01886,-32.80138,1001.503
6.819540501,-2.381563,15.91617,3.402819,-0.04943185,1.013804,0.1709734,14.23993,-23.01886,-32.80138,1001.501
6.839724064,-0.5433049,16.27478,3.341786,0.04355854,0.9825081,0.1434553,13.87161,-23.3302,-31.48536,1001.501
6.859908104,2.152806,15.73686,3.341786,0.06097404,0.900283,0.05713626,13.87161,-23.3302,-31.48536,1001.501
6.880091190,3.13321,16.15524,2.121121,0.04890393,1.018824,0.1538979,14.61456,-23.33231,-31.4824,1001.501
6.900275230,2.152806,14.42195,0.717357,0.1098362,1.084097,0.2100846,14.61456,-23.33231,-31.4824,1001.501
6.920458317,-0.1756534,15.97594,0.5952905,0.1184638,0.8884369,0.2626436,14.61456,-23.33231,-31.4824,1001.501
6.940642357,-2.075186,20.99652,0.9004567,0.005907732,0.9827769,0.2554308,14.6114,-23.01991,-32.7999,1001.499
6.960825443,1.540054,22.19189,3.769018,0.00934822,0.9804342,0.1059973,14.6114,-23.01991,-32.7999,1001.499
6.981009483,1.785155,25.95732,2.85352,0.03990853,0.9656965,0.1231778,14.98932,-23.33027,-32.35918,1001.499
6.998670101,2.030256,25.83778,2.304221,0.02096833,0.9747632,0.2065914,14.98932,-23.33027,-32.35918,1001.499
7.018853188,0.008172336,25.06079,1.693888,0.07503958,1.087954,0.3065562,14.98932,-23.33027,-32.35918,1001.499
7.039037228,-1.156057,24.40333,1.938021,0.06627971,0.937194,0.2028618,14.98288,-23.02096,-32.79842,1001.499
7.059221268,-2.075186,24.52287,2.609387,-0.1125473,0.928561,0.1708388,14.98288,-23.02096,-32.79842,1001.499
7.079404354,-0.6045802,23.92518,3.158686,-0.00312575,0.9342583,0.1508408,15.67036,-23.33219,-32.35647,1001.495
7.099588394,0.7434754,22.25166,3.769018,0.0560228,0.9089426,0.1536591,15.67036,-23.33219,-32.35647,1001.495
7.119771957,-0.9722317,22.90911,2.731453,0.06903113,0.9884164,0.2209021,15.67036,-23.33219,-32.35647,1001.495
7.139955521,0.5596497,24.40333,1.510789,0.06814557,1.179579,0.2913492,16.04019,-23.33479,-31.91586,1001.495
7.160139084,2.826834,23.38726,3.769018,-0.05257519,0.9158512,0.1252466,16.04019,-23.33479,-31.91586,1001.495
7.180323124,0.4983744,25.06079,3.097653,0.0486207,0.8833651,0.1322405,16.40194,-23.02962,-31.47536,1001.495
7.200506210,-1.401159,25.4194,3.524885,0.01621564,0.8895185,0.1961527,16.40194,-23.02962,-31.47536,1001.495
7.220690250,-0.1756534,25.35963,3.830051,-0.04897898,0.9765866,0.1624508,17.15627,-23.3364,-32.35056,1001.495
7.240873337,3.317036,24.10449,3.463852,0.05320473,1.140396,0.2137149,17.15627,-23.3364,-32.35056,1001.497
7.261057377,5.522945,21.89305,3.463852,0.1185408,0.8464345,0.05209332,17.15627,-23.3364,-32.35056,1001.497
7.278717995,2.826834,22.31143,3.402819,0.08349556,0.9101069,0.1750516,17.52304,-23.34186,-31.09442,1001.493
7.298902035,-3.239416,26.73432,2.243188,-0.02267154,0.9554186,0.1376639,17.52304,-23.34186,-31.09442,1001.493
7.319085121,-4.403646,27.92969,3.402819,-0.07767452,1.114683,0.2168042,17.91534,-24.08022,-31.46909,1001.495
7.339269161,-1.707535,26.01709,4.013151,0.1078726,0.8530161,-0.04118541,17.91534,-24.08022,-31.46909,1001.495
7.359452248,1.968981,24.2838,5.050715,0.06029942,0.9560124,0.0553207,17.91534,-24.08022,-31.46909,1001.499
7.379636288,2.459183,24.22403,3.097653,0.08732891,1.032894,0.1117869,18.57861,-23.34197,-31.90576,1001.499
7.399819374,0.8047507,22.01258,2.182154,0.07178184,0.9216126,0.1699441,18.57861,-23.34197,-31.90576,1001.499
7.420003414,0.6822002,22.3712,2.48732,-0.03591463,0.9726733,0.1857103,18.2674,-23.34264,-31.46786,1001.499
7.440186501,2.581733,22.19189,3.036619,-0.0184645,1.12343,0.253871,18.2674,-23.34264,-31.46786,1001.501
7.460370541,0.1307229,22.72981,3.036619,0.04438575,0.8348923,0.1278813,18.2674,-23.34264,-31.46786,1001.501
7.480554104,-3.239416,25.89755,3.891084,0.03089087,0.9126689,0.1800454,18.57532,-23.34505,-31.0275,1001.497
7.500737667,-0.8496812,27.86992,3.585918,-0.03073033,1.179464,0.3017103,18.57532,-23.34505,-31.0275,1001.497
7.520921230,2.459183,26.61478,4.623483,0.04729359,0.8748072,0.06492411,19.31992,-23.34562,-31.46367,1001.497
7.538582325,4.971468,26.07686,4.074184,0.1097355,1.0149,0.1031259,19.31992,-23.34562,-31.46367,1001.497
7.558765888,3.194486,24.58264,2.731453,0.06480221,0.901766,0.1087382,19.31992,-23.34562,-31.46367,1001.495
7.578949452,-0.4820297,22.90911,2.792487,0.004291504,0.9978267,0.2012333,19.68025,-23.04177,-30.64677,1001.495
7.599133015,-3.361967,23.3275,2.609387,-0.08010489,0.959322,0.09792535,19.68025,-23.04177,-30.64677,1001.495
7.619316578,-3.790894,23.5068,3.524885,0.01113181,0.9124271,0.1260585,19.68834,-23.34953,-30.64667,1001.495
7.639500141,0.1307229,22.01258,4.56245,0.0854904,0.9465044,0.07455901,19.68834,-23.34953,-30.64667,1001.493
7.659684181,4.052339,22.5505,2.731453,0.05734929,0.9222975,-0.01833025,19.68834,-23.34953,-30.64667,1001.493
7.679867268,5.46167,20.4586,2.731453,0.07590184,0.9422675,0.04772696,19.69805,-23.71885,-30.64654,1001.493
7.700051308,1.785155,19.02415,1.266656,0.05071679,1.067325,0.2005943,19.69805,-23.71885,-30.64654,1001.493
7.720234394,-2.320287,16.69316,0.1070248,0.1203136,1.01541,0.2140623,20.05173,-23.04282,-30.6453,1001.491
7.740418434,-3.116866,14.00357,0.5342574,0.03110284,0.8962574,0.1252226,20.05173,-23.04282,-30.6453,1001.491
7.760601520,-2.259012,14.95987,1.815955,-0.1022156,0.9136546,0.07710393,21.1726,-23.35528,-30.20162,1001.491
7.780785561,0.5596497,14.00357,1.815955,-0.04931486,0.9654089,0.1164909,21.1726,-23.35528,-30.20162,1001.491
7.800968647,3.071935,13.64496,1.693888,0.1179905,0.8911122,0.08995895,21.1726,-23.35528,-30.20162,1001.495
7.818630218,2.275357,12.44958,1.388722,0.02396504,0.8092518,0.09334271,21.16287,-23.04906,-29.7626,1001.495
7.838813305,-0.1756534,14.00357,2.426287,-0.06687143,1.020564,0.1472901,21.16287,-23.04906,-29.7626,1001.495
7.858997345,3.071935,11.31398,2.182154,-0.04063087,1.085763,0.06144292,21.48052,-23.3577,-29.76126,1001.495
7.879180431,5.706771,10.35768,2.609387,0.03515613,0.9636473,-0.06808431,21.48052,-23.3577,-29.76126,1001.495
7.899364471,2.152806,11.79213,1.266656,0.09596325,1.036994,0.1021237,21.48052,-23.3577,-29.76126,1001.495
7.919548035,-1.830085,12.44958,0.8394234,0.07834747,1.016689,0.1688966,21.16287,-23.04906,-29.7626,1001.495
7.939731598,-3.852169,13.58519,0.6563238,0.05375366,0.9379928,0.1036324,21.16287,-23.04906,-29.7626,1001.495
7.959915161,-4.464921,16.09548,1.999055,0.006670128,0.9226692,0.1126433,21.85059,-23.36008,-29.38339,1001.495
7.980098724,0.4983744,15.31848,2.365254,-0.03293176,0.9675107,0.07563518,21.85059,-23.36008,-29.38339,1001.495
8.000282288,3.807238,14.78057,1.815955,-0.01826878,0.8736182,-0.01091071,21.85059,-23.36008,-29.38339,1001.495
8.020466328,1.294953,13.04727,1.388722,0.01628812,0.9235219,0.1875804,22.5885,-23.05155,-30.19606,1001.495
8.040649414,-2.013911,13.64496,1.876988,-0.03539019,1.009028,0.1849693,22.5885,-23.05155,-30.19606,1001.495
8.060833454,-1.339883,14.54149,3.158686,-0.01455154,1.00232,0.1108448,22.22509,-23.42136,-29.75828,1001.495
8.081017494,1.111127,15.37825,3.158686,-0.005452102,0.9295979,0.03105168,22.22509,-23.42136,-29.75828,1001.495
8.098678112,1.111127,14.78057,2.975586,0.02466844,1.028574,0.1604521,22.22509,-23.42136,-29.75828,1001.495
8.118861198,1.785155,12.38982,2.548354,-0.009681189,1.07693,0.1677852,21.85361,-23.42031,-29.75976,1001.495
8.139045239,0.008172336,12.44958,2.304221,0.02461365,0.9940947,0.1193831,21.85361,-23.42031,-29.75976,1001.495
8.159228325,-1.156057,12.92773,1.999055,0.02373751,0.9471927,0.1082378,22.95692,-23.05547,-29.37906,1001.495
8.179412365,-1.830085,13.40588,2.365254,0.0206331,0.9636385,0.1552801,22.95692,-23.05547,-29.37906,1001.493
8.199595451,-1.64626,14.00357,2.426287,0.03638188,1.017045,0.1679921,22.95692,-23.05547,-29.37906,1001.493
8.219779491,-0.9109564,15.07941,2.365254,0.05546691,0.9947426,0.1490324,22.60465,-23.73017,-29.7567,1001.493
8.239962578,0.1307229,15.91617,2.731453,0.02737836,0.9651853,0.1071288,22.60465,-23.73017,-29.7567,1001.493
8.260146618,0.9885765,15.49779,2.182154,0.03639381,0.9774157,0.1088173,22.97472,-23.73254,-29.37882,1001.493
8.280330181,1.356228,14.06334,1.999055,-0.008743588,1.00028,0.1297728,22.97472,-23.73254,-29.37882,1001.493
8.300513744,0.3758239,14.7208,1.815955,0.02390661,0.9330547,0.1172029,22.97472,-23.73254,-29.37882,1001.497
8.320697308,-0.4820297,15.37825,2.365254,0.02979505,0.9637407,0.1586748,23.33484,-23.36583,-28.93834,1001.497
8.340881348,-0.2369287,15.8564,2.304221,-0.0341337,0.9856764,0.1475247,23.33484,-23.36583,-28.93834,1001.497
8.361064911,1.417503,14.06334,2.548354,-0.01389243,1.026539,0.1614416,24.07615,-23.36947,-28.49625,1001.497
8.378725529,3.317036,11.43351,2.121121,-0.001878511,1.031018,0.118693,24.07615,-23.36947,-28.49625,1001.497
8.398909092,1.968981,12.9875,1.510789,0.1307872,0.9087002,0.1433262,24.07615,-23.36947,-28.49625,1001.497
8.419092655,0.06944759,14.48172,1.632855,0.04678172,0.9535801,0.2314368,24.07615,-23.36947,-28.49625,1001.497
8.439276219,-0.1756534,15.07941,1.754922,0.01394802,1.036662,0.2083134,24.07615,-23.36947,-28.49625,1001.497
8.459460259,0.3758239,15.8564,1.632855,0.04158586,0.9856478,0.1659033,24.07615,-23.36947,-28.49625,1001.497
8.479643345,0.2532734,15.49779,2.182154,0.003777873,0.9604256,0.209739,24.07615,-23.36947,-28.49625,1001.497
8.499827385,0.6209249,15.55756,2.060088,0.01426178,1.011214,0.1854263,24.44118,-23.06121,-28.93401,1001.502
8.520010471,0.008172336,15.01964,1.815955,0.01404779,0.9887816,0.1995802,24.44118,-23.06121,-28.93401,1001.502
8.540194512,-1.094782,17.17131,1.754922,0.01162566,0.9897773,0.1932779,24.44118,-23.06121,-28.93401,1001.499
8.560377598,-0.7271307,19.08391,2.609387,0.02406514,1.03795,0.1912935,24.74746,-23.06518,-28.05452,1001.499
8.580561638,-0.4207545,20.21952,2.731453,0.05380907,1.0112,0.197046,24.74746,-23.06518,-28.05452,1001.503
8.600745678,1.785155,20.09998,3.219719,-0.004359644,0.9575394,0.09777889,24.75414,-23.37427,-27.67801,1001.503
8.620928764,1.662604,18.30692,2.548354,0.04795637,1.09562,0.2259743,24.75414,-23.37427,-27.67801,1001.503
8.638589382,2.397907,15.73686,1.999055,0.01042773,1.088537,0.2001001,24.75414,-23.37427,-27.67801,1001.503
8.658773422,-0.05310292,18.24715,1.754922,0.01898353,0.9014884,0.1170719,24.76384,-23.74358,-27.67789,1001.505
8.678956509,-1.278608,19.32299,3.097653,-0.0003068807,0.9794222,0.193577,24.76384,-23.74358,-27.67789,1001.505
8.699140549,0.06944759,19.86091,2.792487,0.005899168,1.065239,0.148554,25.13367,-23.74618,-27.23728,1001.503
8.719324112,1.478778,18.12761,2.975586,0.02976824,1.045663,0.1549438,25.13367,-23.74618,-27.23728,1001.503
8.739507675,0.3758239,20.04021,1.999055,0.05795311,1.028994,0.1190517,25.13367,-23.74618,-27.23728,1001.502
8.759691238,-0.6045802,20.39883,2.548354,-0.01213378,0.9622878,0.09593792,25.51486,-24.11654,-27.23567,1001.502
8.779874802,0.06944759,20.04021,3.280752,0.03603724,1.007082,0.09724034,25.51486,-24.11654,-27.23567,1001.5
8.800058365,0.3758239,17.58969,3.158686,-0.01832774,0.955792,0.1065234,25.87663,-23.74828,-27.23432,1001.5
8.820242405,-0.2982039,15.43802,2.609387,-0.02336571,0.972795,0.1433613,25.87663,-23.74828,-27.23432,1001.502
8.840425968,-0.6045802,14.48172,2.85352,-0.001075931,0.9645362,0.1300273,25.87663,-23.74828,-27.23432,1001.502
8.860609531,0.6209249,12.09097,2.426287,-0.01773603,0.9860742,0.1319377,26.23675,-23.38156,-26.79384,1001.503
8.880793571,1.111127,9.042765,2.304221,0.01596239,0.9915056,0.1232372,26.23675,-23.38156,-26.79384,1001.503
8.900976658,0.3758239,8.086465,1.815955,0.05518523,0.9783496,0.1404364,26.626,-24.12278,-26.35297,1001.503
8.918637276,0.008172336,7.429008,1.388722,0.06024514,0.9979585,0.1739049,26.626,-24.12278,-26.35297,1001.503
8.938821316,0.06944759,7.010627,1.449756,0.0506051,0.9585453,0.1273999,26.626,-24.12278,-26.35297,1001.503
8.959004402,0.9885765,6.771552,0.9614899,0.06875989,1.051209,0.1914903,25.87193,-23.75269,-25.97966,1001.503
8.979188442,1.907705,7.548546,1.327689,0.0289054,0.9582763,0.122074,25.87193,-23.75269,-25.97966,1001.503
8.999371529,2.091531,8.743921,1.022523,0.03698623,1.047403,0.1369639,26.2434,-23.75374,-25.97819,1001.503
9.019555569,1.356228,10.17837,1.144589,0.02603104,0.9568961,0.1103728,26.2434,-23.75374,-25.97819,1001.505
9.039738655,0.008172336,11.55305,1.388722,0.02140068,0.9406962,0.1246566,25.87193,-23.75269,-25.97966,1001.505
9.059922695,-0.3594792,11.8519,1.632855,-0.01275237,0.9723377,0.1564745,25.87193,-23.75269,-25.97966,1001.505
9.080106735,0.9273012,9.580684,2.060088,-0.02085559,1.004176,0.1585763,25.87193,-23.75269,-25.97966,1001.505
9.100289822,0.5596497,7.84739,1.449756,-0.007509273,1.01668,0.1879994,26.25147,-24.1246,-25.53893,1001.505
9.120473862,0.7434754,7.488777,2.182154,-0.02646238,0.9105896,0.1085602,26.25147,-24.1246,-25.53893,1001.505
9.140657425,-0.2982039,8.206002,1.815955,0.02982318,1.000864,0.1774132,26.60353,-23.38702,-25.5377,1001.504
9.160840988,-0.9109564,8.80369,1.693888,0.06164489,0.9612409,0.2140495,26.60353,-23.38702,-25.5377,1001.504
9.181024551,-1.094782,10.47721,1.876988,0.06838473,1.001986,0.2197118,26.60353,-23.38702,-25.5377,1001.504
9.198685169,-0.9722317,11.97143,1.693888,0.05861416,0.9731121,0.1850937,26.98636,-23.75584,-25.97523,1001.504
9.218868733,0.6209249,11.67259,2.182154,0.01446414,0.9949776,0.1617485,26.98636,-23.75584,-25.97523,1001.502
9.239052296,3.562137,10.59675,1.938021,-0.02023612,0.9941984,0.09074233,26.61488,-23.7548,-25.97671,1001.502
9.259236336,0.5596497,11.8519,0.2901244,0.101923,0.9807076,0.2168086,26.61488,-23.7548,-25.97671,1001.502
9.279419422,0.3145486,10.53698,1.388722,0.03965511,1.024144,0.2386829,26.61488,-23.7548,-25.97671,1001.502
9.299603462,-0.7884059,12.62889,0.4121909,0.04454606,1.058873,0.2130874,26.60353,-23.38702,-25.5377,1001.502
9.319787502,-1.156057,13.34612,1.266656,-0.006475018,0.9325073,0.1269684,26.60353,-23.38702,-25.5377,1001.502
9.339970589,-1.462434,13.22658,0.6563238,0.07497281,1.054424,0.2674523,26.61159,-23.75788,-25.09844,1001.502
9.360154629,0.9885765,11.43351,0.8394234,0.001057482,1.065503,0.2123092,26.61159,-23.75788,-25.09844,1001.502
9.380337715,1.417503,13.52542,0.7783902,0.0303123,1.001441,0.1200067,26.61159,-23.75788,-25.09844,1001.502
9.400521755,-0.6658554,15.97594,1.327689,0.0167136,1.007825,0.1887617,27.70517,-23.08683,-24.27872,1001.502
9.420704842,0.06944759,15.91617,1.938021,0.01244079,1.002655,0.1662827,27.70517,-23.08683,-24.27872,1001.502
9.440888882,1.417503,15.8564,2.060088,-0.0130646,0.9592371,0.1090168,26.98142,-23.76048,-24.65784,1001.504
9.461071968,-0.05310292,16.45409,1.938021,0.04732094,0.9505427,0.147683,26.98142,-23.76048,-24.65784,1001.504
9.478732586,-0.7271307,16.51386,1.999055,-0.008491362,0.9388251,0.1708892,26.98142,-23.76048,-24.65784,1001.509
9.498916626,-0.9109564,16.69316,2.792487,-0.02190764,0.9718189,0.1462593,27.34179,-23.39354,-24.28009,1001.509
9.519100189,-0.3594792,16.87247,3.097653,-0.02638246,0.9829137,0.1445391,27.34179,-23.39354,-24.28009,1001.509
9.539283753,0.3758239,16.8127,3.585918,0.02721933,0.8592793,0.08605608,27.71467,-23.39326,-24.65501,1001.509
9.559467793,0.8047507,17.88854,3.585918,0.01567773,0.9352197,0.1308822,27.71467,-23.39326,-24.65501,1001.509
9.579650879,3.13321,14.95987,3.524885,0.001770503,1.008101,0.1386707,27.71467,-23.39326,-24.65501,1001.509
9.599834919,2.949385,15.43802,2.731453,0.08121454,0.9014364,0.06880746,27.71968,-23.76699,-23.40022,1001.509
9.620018482,3.13321,14.95987,3.463852,0.01340978,1.041721,0.1860313,27.71968,-23.76699,-23.40022,1001.509
9.640202046,0.1307229,19.62183,1.571822,0.1026028,0.8074398,0.1004902,27.72132,-23.76545,-23.83935,1001.511
9.660385609,-0.4820297,19.26322,3.341786,0.02877456,0.9658811,0.2832849,27.72132,-23.76545,-23.83935,1001.511
9.680569649,0.9273012,19.92068,2.548354,0.03180093,1.115141,0.2366027,28.01954,-23.39856,-23.39912,1001.511
9.700752735,2.030256,20.81721,2.060088,0.06867689,0.9003074,0.1150293,28.01954,-23.39856,-23.39912,1001.511
9.720936775,0.06944759,23.80565,2.243188,0.05932407,0.9937748,0.2035053,28.01954,-23.39856,-23.39912,1001.511
9.738597393,-0.7884059,26.67455,3.524885,-0.04427177,1.065827,0.160804,28.39931,-23.77024,-23.02111,1001.511
9.758780479,0.3758239,27.51131,3.769018,0.02574244,1.058869,0.1853794,28.39931,-23.77024,-23.02111,1001.509
9.778964519,1.662604,27.63085,4.37935,0.04095708,0.841121,0.03215199,29.14868,-24.14475,-22.13977,1001.509
9.799148560,-0.7884059,27.63085,3.891084,0.05626503,1.04489,0.3213022,29.14868,-24.14475,-22.13977,1001.511
9.819331646,-0.4820297,26.43547,2.975586,-0.0212615,1.075227,0.2733577,29.14868,-24.14475,-22.13977,1001.511
9.839515686,-1.891361,27.92969,4.257284,-0.1004916,0.9693488,0.1312416,29.14703,-24.14629,-21.70064,1001.509
9.859698772,-1.278608,27.92969,5.661047,-0.0006374837,0.9280651,0.1439024,29.14703,-24.14629,-21.70064,1001.509
9.879882812,0.3758239,25.89755,3.036619,0.1457477,0.9079196,0.1466949,28.76585,-23.77593,-21.70224,1001.511
9.900065899,3.13321,24.58264,3.219719,0.02185225,1.061954,0.1616035,28.76585,-23.77593,-21.70224,1001.511
9.920249939,1.294953,24.22403,3.280752,0.06485008,1.05655,0.1356443,28.76585,-23.77593,-21.70224,1001.511
9.940433025,0.1307229,22.3712,2.609387,0.09649769,1.031622,0.1560277,29.89664,-24.52058,-20.88202,1001.511
9.960617065,-0.2369287,22.25166,2.365254,-0.01148031,0.8690423,0.06976216,29.89664,-24.52058,-20.88202,1001.509
9.980800629,1.478778,21.29536,2.914553,0.02229862,0.828878,0.01733947,29.89499,-24.52213,-20.44289,1001.509
10.000984192,1.049852,20.04021,1.266656,0.1366515,1.019587,0.2569406,29.89499,-24.52213,-20.44289,1001.509
10.018644810,1.172402,19.92068,1.388722,0.009965554,1.047632,0.1710692,29.89499,-24.52213,-20.44289,1001.509
10.038828850,-1.094782,22.01258,2.365254,0.02824713,1.011479,0.179572,30.25512,-24.15541,-20.00241,1001.509
10.059012413,-0.9722317,23.98495,2.792487,0.01796721,0.9852039,0.1265157,30.25512,-24.15541,-20.00241,1001.509
10.079195976,-0.8496812,23.14819,3.036619,-0.03978513,1.013154,0.202088,30.25371,-24.15673,-19.62602,1001.509
10.099379540,0.1307229,24.2838,2.975586,0.0373521,0.9382434,0.1026882,30.25371,-24.15673,-19.62602,1001.509
10.119563103,0.8047507,22.96888,3.769018,0.05353857,0.9551156,0.1355997,30.25371,-24.15673,-19.62602,1001.508
10.139746666,0.8047507,22.07235,3.769018,0.04200156,0.9917907,0.1334229,30.27312,-24.89536,-19.62576,1001.508
10.159930706,1.233677,18.60576,2.365254,0.004661704,0.8503501,0.07326121,30.27312,-24.89536,-19.62576,1001.508
10.180113792,0.06944759,15.25872,1.754922,-0.0001292738,1.004664,0.1892105,30.61055,-23.7931,-18.30728,1001.508
10.200297833,-0.1756534,13.7645,1.449756,0.005699694,0.9627762,0.1221971,30.61055,-23.7931,-18.30728,1001.508
10.220480919,-0.6658554,13.7645,1.144589,0.001051106,1.027269,0.1590012,30.92981,-24.16329,-18.30592,1001.508
10.240664959,-0.7884059,13.52542,1.388722,0.06238664,0.9023352,0.09658834,30.92981,-24.16329,-18.30592,1001.512
10.260848999,0.6822002,14.18288,1.571822,0.07571219,0.8783238,0.04597511,30.92981,-24.16329,-18.30592,1001.512
10.281032085,1.478778,14.06334,2.182154,0.03953324,0.9967239,0.120873,30.93811,-24.53393,-17.92939,1001.512
10.298692703,2.152806,11.67259,1.571822,-0.003396927,0.9970557,0.1209425,30.93811,-24.53393,-17.92939,1001.512
10.318876743,0.7434754,10.77606,0.9614899,0.03968821,0.9050353,0.08353725,30.93811,-24.53393,-17.92939,1001.512
10.339059830,-0.1756534,10.41745,0.717357,-0.0325414,0.9338507,0.1479564,30.93811,-24.53393,-17.92939,1001.512
10.359243870,-1.339883,11.25421,0.9614899,0.009100893,0.9987704,0.2109767,30.93811,-24.53393,-17.92939,1001.512
10.379426956,-0.6045802,12.09097,1.327689,-0.03392374,1.007775,0.1669387,30.92841,-24.16462,-17.92952,1001.512
10.399610996,0.008172336,12.86796,1.754922,0.04454369,0.9416785,0.1090713,30.92841,-24.16462,-17.92952,1001.512
10.419794560,1.662604,12.38982,2.243188,0.02631425,1.013061,0.1148901,31.31765,-24.90584,-17.48865,1001.51
10.439978123,1.417503,12.33005,1.022523,0.03629619,1.06415,0.1572464,31.31765,-24.90584,-17.48865,1001.51
10.460161686,-0.5433049,12.92773,0.9614899,0.03328894,1.03347,0.1683217,31.31765,-24.90584,-17.48865,1001.502
10.480345726,-0.5433049,13.9438,1.571822,0.002366876,0.9991225,0.1165957,31.68913,-24.90689,-17.48717,1001.502
10.500529289,0.866026,13.04727,2.304221,-0.009269916,1.082706,0.1722782,31.68913,-24.90689,-17.48717,1001.502
10.520712853,1.662604,11.79213,2.243188,-0.05548501,1.037265,0.09261961,31.67613,-24.54066,-16.60904,1001.502
10.540896416,0.1307229,11.79213,2.304221,-0.01753739,0.9308543,0.08169931,31.67613,-24.54066,-16.60904,1001.506
10.561079979,-0.6658554,11.61282,2.914553,0.02645124,0.9614716,0.1381982,31.67613,-24.54066,-16.60904,1001.506
10.578740597,-0.2369287,10.53698,3.036619,-0.01687421,0.9940859,0.1559378,30.94288,-24.90788,-16.61187,1001.506
10.598924637,0.3758239,9.999064,2.67042,0.03777366,0.9825767,0.1278943,30.94288,-24.90788,-16.61187,1001.506
10.619107723,2.397907,8.026696,3.097653,0.005646599,1.046405,0.141856,32.05426,-24.9139,-15.79191,1001.502
10.639291763,0.5596497,6.950858,1.999055,0.03660963,1.037705,0.1859178,32.05426,-24.9139,-15.79191,1001.502
10.659474850,0.06944759,6.652015,1.876988,0.02449567,0.9640868,0.1158698,32.05426,-24.9139,-15.79191,1001.506
10.679658890,-0.1143782,5.93479,1.999055,0.02559139,0.9922988,0.1553535,31.31295,-24.91025,-16.23399,1001.506
10.699842930,1.049852,5.635946,1.693888,0.0135051,0.9557655,0.1079359,31.31295,-24.91025,-16.23399,1001.504
10.720026016,1.294953,5.157795,1.815955,-0.001154791,1.010267,0.1601277,31.3016,-24.54248,-15.79499,1001.504
10.740210056,0.06944759,6.114096,1.449756,0.01952719,0.9752003,0.1603764,31.3016,-24.54248,-15.79499,1001.508
10.760393143,0.3758239,6.41294,1.754922,0.02385287,0.9769834,0.1336431,31.29996,-24.54403,-15.35586,1001.508
10.780577183,0.4370991,7.010627,1.815955,0.03142457,0.9884664,0.1596484,31.29996,-24.54403,-15.35586,1001.508
10.800760269,0.3758239,6.950858,1.938021,0.04273337,0.9707391,0.1563614,31.29996,-24.54403,-15.35586,1001.508
10.820944309,0.2532734,7.429008,1.754922,0.03359561,1.008404,0.1556605,31.68278,-24.91285,-15.79339,1001.509
10.838604927,0.4370991,6.353171,1.571822,0.03648863,1.008418,0.158576,31.68278,-24.91285,-15.79339,1001.509
10.858788490,0.06944759,6.41294,0.9614899,0.01195286,1.003147,0.1648334,31.69085,-25.28371,-15.35413,1001.504
10.878972053,-0.3594792,7.309471,0.717357,-0.04057484,0.9598235,0.1552945,31.69085,-25.28371,-15.35413,1001.504
10.899155617,0.2532734,6.711783,1.388722,-0.001245604,1.018273,0.1344971,31.69085,-25.28371,-15.35413,1001.505
10.919339180,0.7434754,5.695714,1.815955,0.06648324,1.001315,0.1379548,30.94625,-25.28315,-14.91795,1001.505
10.939522743,0.1919981,6.233633,1.083556,0.06859293,0.986232,0.1473849,30.94625,-25.28315,-14.91795,1001.505
10.959706783,-0.1143782,5.93479,0.8394234,0.05833675,0.9967182,0.1495539,31.67143,-24.54508,-15.35438,1001.505
11.000073910,0.4370991,7.189933,0.6563238,0.0775226,1.004944,0.1793703,31.67143,-24.54508,-15.35438,1001.504
11.020257950,0.3758239,8.385308,0.717357,0.03013084,0.9758808,0.1564817,31.30966,-24.91334,-15.35573,1001.504
11.040441036,-0.2982039,9.461146,0.5952905,0.02279029,0.9843711,0.1688251,31.30966,-24.91334,-15.35573,1001.504
11.060625076,-0.3594792,9.939296,1.083556,-0.008365527,0.9685128,0.1578521,31.67949,-24.91594,-14.91512,1001.504
11.080808163,0.1307229,9.281839,0.9004567,-0.01090085,1.018218,0.1744103,31.67949,-24.91594,-14.91512,1001.504
11.100992203,0.3145486,7.84739,1.022523,-0.01640366,0.9950666,0.1554699,31.67949,-24.91594,-14.91512,1001.5
11.118652821,0.4370991,7.309471,1.266656,-0.01307122,0.9596587,0.1153507,31.30497,-24.91776,-14.10108,1001.5
11.138835907,0.5596497,5.815252,0.9004567,0.02040304,1.022078,0.1739542,31.30497,-24.91776,-14.10108,1001.504
11.159019947,1.049852,4.619877,1.327689,-0.008446461,1.015042,0.1563402,31.68779,-25.28658,-14.5386,1001.504
11.179203987,1.049852,4.081958,1.205623,-0.006410842,1.006439,0.1474084,31.68779,-25.28658,-14.5386,1001.504
11.199387074,0.4983744,4.44057,0.9614899,0.05753781,0.9832387,0.1395565,31.68779,-25.28658,-14.5386,1001.504
11.219571114,-0.1756534,4.679646,0.8394234,0.06333639,0.9813935,0.1876836,31.67809,-24.91726,-14.53873,1001.502
11.239754200,-0.3594792,5.277333,0.717357,0.02657025,0.9905946,0.1820806,31.67809,-24.91726,-14.53873,1001.502
11.259938240,0.1919981,6.353171,0.9004567,0.03430523,0.989396,0.1679345,31.69585,-25.65744,-14.09934,1001.496
11.280121803,0.6209249,7.249702,0.9614899,0.02423646,0.9843491,0.1732019,31.69585,-25.65744,-14.09934,1001.496
11.300305367,0.1919981,8.026696,0.8394234,0.01650265,0.9856442,0.1776181,31.69585,-25.65744,-14.09934,1001.495
11.320488930,-0.2369287,8.32554,1.022523,0.0002004606,0.9776272,0.1799163,31.69421,-25.65898,-13.66021,1001.495
11.340672493,0.008172336,8.385308,1.205623,-0.01298117,0.9515904,0.1473056,31.69421,-25.65898,-13.66021,1001.493
11.360856056,-0.2982039,8.146234,1.144589,0.02733403,0.9673384,0.183079,31.68451,-25.28967,-13.66034,1001.493
11.381040096,0.4370991,7.787621,1.571822,0.006893157,0.9825854,0.1785449,31.68451,-25.28967,-13.66034,1001.493
11.398700714,0.3145486,7.84739,1.388722,0.01420856,0.9768644,0.131222,31.68451,-25.28967,-13.66034,1001.493
11.418884277,0.008172336,6.652015,1.266656,-0.00473265,0.9868162,0.1742664,31.01317,-25.65705,-13.66292,1001.493
11.439067841,0.1307229,6.41294,1.388722,-0.001837288,0.9870232,0.1577223,31.01317,-25.65705,-13.66292,1001.497
11.459251881,0.3145486,6.532477,1.632855,0.01406566,0.9883198,0.1484795,32.04627,-24.9214,-13.65899,1001.497
11.479434967,0.4983744,6.472708,1.632855,0.03422992,0.9957746,0.1597889,32.04627,-24.9214,-13.65899,1001.487
11.499619007,-0.2982039,5.576177,1.510789,0.02445689,0.9666985,0.1456033,31.31303,-25.28862,-13.66182,1001.487
11.519802094,-0.4820297,5.93479,1.388722,0.001243732,0.9715524,0.1588713,31.31303,-25.28862,-13.66182,1001.489
11.539986134,0.3145486,5.217565,1.510789,0.0379381,1.007699,0.1843488,31.31303,-25.28862,-13.66182,1001.489
11.560169220,0.2532734,6.652015,1.388722,0.03062926,0.9346724,0.159558,31.68451,-25.28967,-13.66034,1001.493
11.580353260,-0.05310292,7.966928,1.693888,0.01080951,0.9777846,0.1799039,31.68451,-25.28967,-13.66034,1001.493
11.600536347,0.866026,8.504846,1.693888,0.02282162,0.9821134,0.1522365,32.05598,-25.29072,-13.65886,1001.493
11.620720387,1.172402,8.146234,1.571822,0.03913593,0.9882237,0.1956397,32.05598,-25.29072,-13.65886,1001.493
11.640903950,1.233677,8.146234,1.510789,0.01685251,0.9970087,0.1559461,32.05598,-25.29072,-13.65886,1001.497
11.661087513,0.3758239,9.042765,1.632855,0.005855374,0.9891137,0.1538597,31.67175,-24.92322,-12.84494,1001.497
11.678748131,-0.5433049,10.41745,1.510789,0.03897837,1.040053,0.2458109,31.67175,-24.92322,-12.84494,1001.487
11.698932171,-0.7271307,11.73236,1.205623,0.0393236,0.9717429,0.2454316,32.05293,-25.29359,-12.84333,1001.487
11.719115257,0.866026,12.86796,2.121121,0.00383281,0.9958869,0.200709,32.05293,-25.29359,-12.84333,1001.491
11.739299297,3.929789,11.67259,2.731453,-0.03095856,1.003089,0.1065048,32.05293,-25.29359,-12.84333,1001.491
11.759482861,3.929789,13.22658,2.975586,-0.04262115,0.9317743,0.04915303,31.31804,-25.66235,-12.40703,1001.491
11.779666424,1.723879,14.48172,2.85352,0.01749409,1.101979,0.2232253,31.31804,-25.66235,-12.40703,1001.491
11.799849987,-0.8496812,17.29085,1.876988,0.01216683,0.9462855,0.1335393,31.67816,-25.29562,-11.96655,1001.489
11.820034027,-0.4207545,16.33455,3.280752,0.01104192,0.9591845,0.1503402,31.67816,-25.29562,-11.96655,1001.489
11.840217113,2.949385,14.9001,3.769018,-0.01556002,0.9677474,0.02890204,31.67816,-25.29562,-11.96655,1001.489
11.860401154,2.520458,14.60126,2.67042,0.03538658,0.9023303,0.05672775,32.04823,-25.298,-11.58867,1001.489
11.880584240,-0.6658554,15.73686,1.815955,0.120412,0.9277711,0.2079483,32.04823,-25.298,-11.58867,1001.489
11.900768280,-0.6658554,16.09548,2.121121,-0.03812821,0.9560054,0.2019276,32.42612,-25.67146,-10.70881,1001.489
11.920952320,2.091531,12.56912,1.938021,0.01688745,1.269662,0.3165635,32.42612,-25.67146,-10.70881,1001.489
11.938612938,3.317036,13.10704,2.243188,0.0002451722,0.8981535,-0.01434499,32.42612,-25.67146,-10.70881,1001.489
11.958796024,0.3145486,15.55756,0.717357,0.1630858,1.029166,0.1612338,32.42776,-25.66991,-11.14794,1001.489
11.978980064,-0.2369287,15.79663,-0.1371081,0.09755105,0.9451498,0.1314452,32.42776,-25.66991,-11.14794,1001.489
11.999163151,-1.278608,15.8564,0.168058,0.06384283,0.8219112,0.097914,32.04494,-25.30109,-10.71041,1001.489
12.019347191,1.233677,16.57363,1.327689,0.0497464,0.831854,0.05141915,32.04494,-25.30109,-10.71041,1001.489
12.039530277,2.336632,16.75293,0.2901244,0.01518032,1.171833,0.3092773,32.06271,-26.04126,-10.27103,1001.493
12.059714317,1.540054,16.33455,-0.5033074,-0.04206806,1.199647,0.3016399,32.06271,-26.04126,-10.27103,1001.493
12.079897404,-0.9109564,16.15524,0.5952905,-0.01104164,0.8732042,0.04162186,32.06271,-26.04126,-10.27103,1001.493
12.100081444,-2.197737,16.15524,1.632855,-0.02438622,0.9391667,0.06387016,31.68012,-25.67222,-9.896237,1001.493
12.120265484,-1.401159,12.68866,2.365254,-0.06397673,0.8253956,-0.05364446,31.68012,-25.67222,-9.896237,1001.493
12.140448570,1.968981,8.80369,1.632855,-0.02051714,0.9391837,0.01909885,32.42307,-25.67432,-9.89328,1001.493
12.160632610,3.745963,4.560108,1.327689,0.01163238,1.228208,0.1892382,32.42307,-25.67432,-9.89328,1001.495
12.180816174,2.520458,3.48427,1.083556,0.04873142,1.033649,0.1245098,32.42307,-25.67432,-9.89328,1001.495
12.200999737,-0.05310292,2.109589,0.2290912,0.08257922,0.9865747,0.1337467,32.42142,-25.67587,-9.45415,1001.495
12.218660355,0.06944759,0.4958327,-0.686407,0.1046897,1.032223,0.1565141,32.42142,-25.67587,-9.45415,1001.495
12.238843918,-0.7884059,1.750977,-0.8695067,0.1164646,0.8981131,0.06577042,32.78484,-25.30606,-9.89193,1001.499
12.259027958,0.008172336,1.810745,-1.540872,0.07434908,0.9896054,0.1090029,32.78484,-25.30606,-9.89193,1001.499
12.279211044,0.8047507,1.09352,-1.11364,-0.06251613,0.9803029,0.1095063,32.78484,-25.30606,-9.89193,1001.499
12.299395084,2.030256,0.7946764,-0.4422742,-0.07722893,1.000479,0.1050613,32.78484,-25.30606,-9.89193,1001.499
12.319578171,1.662604,1.09352,-0.5033074,-0.05139264,1.056604,0.1518733,32.78484,-25.30606,-9.89193,1001.499
12.339762211,0.5596497,1.272827,0.4732241,-0.01500072,1.07755,0.1950541,32.80096,-26.04778,-9.013412,1001.499
12.359946251,0.008172336,1.631439,0.6563238,-0.01035264,0.9743384,0.1049324,32.80096,-26.04778,-9.013412,1001.499
12.380129337,0.2532734,2.109589,0.7783902,0.04573404,1.001846,0.1511336,32.80096,-26.04778,-9.013412,1001.499
12.400313377,0.8047507,3.663577,0.717357,0.06660705,1.029867,0.1905845,32.41007,-25.3081,-9.015148,1001.499
12.420496464,0.6209249,5.815252,0.3511577,0.06015058,0.9660083,0.1708398,32.41007,-25.3081,-9.015148,1001.499
12.440680504,0.5596497,7.309471,-0.01504164,0.0261501,0.9860238,0.1537687,33.16438,-25.67797,-9.451193,1001.499
12.460863590,0.6209249,8.32554,0.6563238,0.01664884,0.9338453,0.1731866,33.16438,-25.67797,-9.451193,1001.499
12.481047630,0.5596497,10.47721,0.717357,0.03485504,1.023001,0.2002269,32.41007,-25.3081,-9.015148,1001.5
12.498708248,1.111127,11.79213,0.4732241,0.01325053,0.9754421,0.1754746,32.41007,-25.3081,-9.015148,1001.5
12.518891335,1.111127,12.21051,0.3511577,0.03270946,1.00129,0.1876357,32.41007,-25.3081,-9.015148,1001.5
12.539075375,1.294953,10.95537,0.3511577,-0.02447337,0.984212,0.1630523,32.03695,-25.30859,-8.577497,1001.5
12.559259415,0.9273012,11.01513,0.2901244,0.02024858,0.8778741,0.05723912,32.03695,-25.30859,-8.577497,1001.5
12.579442501,-0.7884059,10.59675,0.1070248,0.02990065,0.9946643,0.1675587,32.40702,-25.31097,-8.199621,1001.5
12.599626541,-1.033507,10.77606,0.2901244,0.02073493,0.9952203,0.1466599,32.40702,-25.31097,-8.199621,1001.5
12.619810105,-0.9109564,10.1186,0.4121909,-0.02692861,0.9882876,0.1392938,32.40702,-25.31097,-8.199621,1001.5
12.639993668,0.3758239,8.923227,1.083556,-0.02132096,0.9639782,0.1071764,32.78656,-25.68288,-7.758883,1001.5
12.660177231,1.294953,8.086465,0.9614899,-0.004491795,1.007591,0.1318576,32.78656,-25.68288,-7.758883,1001.504
12.680360794,1.111127,7.608315,0.717357,0.01213738,0.9883443,0.1431303,32.42643,-26.04959,-8.199364,1001.504
12.700544357,1.049852,7.429008,0.8394234,0.03392187,0.9820496,0.1264298,32.42643,-26.04959,-8.199364,1001.503
12.720728397,1.417503,7.130165,0.717357,0.03700913,1.045417,0.1417904,32.42643,-26.04959,-8.199364,1001.503
12.740911484,1.417503,6.891089,0.4121909,0.005424536,0.9855986,0.1168101,32.7882,-25.68133,-8.198014,1001.504
12.758572102,0.6822002,7.130165,0.717357,0.007190272,0.959639,0.09877665,32.7882,-25.68133,-8.198014,1001.504
12.778756142,0.008172336,6.532477,0.8394234,0.01554855,0.9855172,0.1401498,32.78656,-25.68288,-7.758883,1001.504
12.798940182,0.6209249,6.114096,0.6563238,-0.007515173,1.018131,0.1393694,32.78656,-25.68288,-7.758883,1001.504
12.819123268,0.8047507,5.576177,0.4121909,0.01920259,0.9630153,0.1182893,32.78656,-25.68288,-7.758883,1001.504
12.839307308,0.6822002,4.50034,0.3511577,0.01300682,0.9960165,0.152526,32.77356,-25.31665,-6.880752,1001.504
12.859490395,1.049852,3.663577,0.3511577,0.009786563,0.9836001,0.1294155,32.77356,-25.31665,-6.880752,1001.504
12.879674435,-0.7884059,4.321033,-0.01504164,0.04705752,0.9723964,0.1422768,32.78327,-25.68597,-6.880623,1001.504
12.899857521,0.5596497,3.00612,0.04599158,-0.008214945,1.035044,0.19177,32.78327,-25.68597,-6.880623,1001.504
12.920041561,0.6822002,2.826814,-0.5033074,0.02328102,0.9841111,0.1469229,32.78327,-25.68597,-6.880623,1001.504
12.940224648,-0.2369287,3.00612,-0.381241,0.04161879,0.9825535,0.1848189,32.05167,-26.05164,-7.322582,1001.503
12.960408688,-0.2982039,4.022189,-0.6253738,0.05813195,0.9344302,0.1273982,32.05167,-26.05164,-7.322582,1001.503
12.980592251,-0.7884059,5.755483,-0.07607486,0.03301831,0.9357895,0.1970438,32.41344,-25.68337,-7.321232,1001.505
13.000775814,0.4370991,6.353171,-0.381241,0.01680147,1.000546,0.1900773,32.41344,-25.68337,-7.321232,1001.505
13.020959377,0.3145486,7.070396,-1.785005,0.002851889,0.9181289,0.173869,32.41344,-25.68337,-7.321232,1001.507
13.038620472,0.5596497,7.84739,0.04599158,0.01210703,0.9510373,0.1428786,32.41179,-25.68492,-6.882102,1001.507
13.058803558,0.8047507,7.608315,0.04599158,-0.02491191,1.019706,0.1987897,32.41179,-25.68492,-6.882102,1001.507
13.078987598,0.9885765,7.608315,0.7783902,-0.03647482,1.019441,0.1593879,32.42009,-26.05555,-6.505576,1001.507
13.099171162,0.7434754,7.369239,-0.381241,0.009269104,0.9468524,0.1209035,32.42009,-26.05555,-6.505576,1001.507
13.119354725,-0.3594792,5.576177,-0.1371081,-0.007673395,0.872646,0.1029158,32.42009,-26.05555,-6.505576,1001.507
13.139538288,0.3758239,4.679646,0.5952905,-0.006101219,1.020294,0.1676322,32.41845,-26.0571,-6.066446,1001.505
13.159722328,-0.6045802,3.663577,0.4732241,-0.03076792,1.065176,0.1977519,32.41845,-26.0571,-6.066446,1001.505
13.179905415,-1.094782,5.217565,0.9614899,0.008965681,0.9712164,0.1554472,32.42009,-26.05555,-6.505576,1001.503
13.200089455,0.1307229,5.994558,1.083556,-0.001944416,1.036235,0.1299878,32.42009,-26.05555,-6.505576,1001.503
13.220272541,0.008172336,6.592246,0.9614899,0.003220461,1.008392,0.1114255,33.53287,-26.06025,-6.06201,1001.501
13.240456581,0.8047507,6.831321,1.205623,-0.001689594,0.9759636,0.1005725,33.53287,-26.06025,-6.06201,1001.501
13.260639668,0.866026,6.652015,1.266656,0.01196213,0.9246209,0.07034114,33.53287,-26.06025,-6.06201,1001.501
13.280823708,-0.4820297,5.516408,0.5342574,0.02856758,0.9856139,0.1498644,33.15169,-25.68989,-6.063617,1001.501
13.301007748,-0.1756534,4.261264,0.4732241,0.006934992,1.059518,0.1406539,33.15169,-25.68989,-6.063617,1001.501
13.318668366,-0.5433049,2.707276,-0.01504164,0.02441524,0.9313658,0.09283935,32.78992,-26.05815,-6.064967,1001.501
13.338851452,-0.05310292,1.332595,-0.381241,0.02448095,0.9648093,0.1407001,32.78992,-26.05815,-6.064967,1001.5
13.359035492,0.4370991,-0.2213924,-0.6253738,0.008471673,0.9334983,0.09825741,32.78992,-26.05815,-6.064967,1001.5
13.379218578,-0.2982039,-0.9983862,-0.686407,0.01359103,0.9086797,0.1167356,32.4168,-26.05864,-5.627316,1001.501
13.399402619,0.7434754,-1.237461,-0.4422742,-0.01129793,1.011676,0.1494655,32.4168,-26.05864,-5.627316,1001.501
13.419586182,0.9885765,-1.058155,-0.4422742,-0.008668842,1.073147,0.1599234,32.78992,-26.05815,-6.064967,1001.5
13.439769745,1.294953,-0.9386175,-0.01504164,-0.008941859,1.016855,0.1193962,32.78992,-26.05815,-6.064967,1001.5
13.459953308,0.8047507,-1.29723,-0.9305399,0.01528634,0.928179,0.1073873,32.78992,-26.05815,-6.064967,1001.5
13.480136871,0.4983744,-1.237461,-0.2591745,-0.007276925,0.9980749,0.1589222,33.15169,-25.68989,-6.063617,1001.5
13.500320912,-0.2369287,-1.954686,-0.381241,-0.01314294,0.9653646,0.1261687,33.15169,-25.68989,-6.063617,1001.5
13.520504475,-1.217333,-3.329368,-0.4422742,-7.133005E-05,0.9214362,0.1291728,33.16304,-26.05766,-6.502619,1001.5
13.540688038,-1.523709,-3.747749,-0.1371081,-0.01627989,0.945292,0.14232,33.16304,-26.05766,-6.502619,1001.501
13.560871601,0.008172336,-2.492605,-0.1371081,-0.005601946,0.9801255,0.1147717,33.16304,-26.05766,-6.502619,1001.501
13.581055641,0.6209249,-2.014455,0.168058,-0.009130029,1.032325,0.1226222,32.79156,-26.05661,-6.504097,1001.5
13.598716259,-0.3594792,-3.389137,0.1070248,-0.01763813,0.9380391,0.1387723,32.79156,-26.05661,-6.504097,1001.5
13.618899346,-0.5433049,-2.612143,0.5342574,0.01811219,0.9729502,0.1408705,32.78186,-25.68729,-6.504226,1001.5
13.639083386,-1.156057,-3.747749,0.3511577,-0.01434893,0.9454896,0.1252905,32.78186,-25.68729,-6.504226,1001.505
13.659266472,-0.4207545,-1.894918,0.4121909,0.03443374,1.019306,0.1325189,32.78186,-25.68729,-6.504226,1001.505
13.679450512,0.4370991,-3.030524,-0.1371081,-0.0373356,0.9718698,0.118061,32.78186,-25.68729,-6.504226,1001.505
13.699633598,-0.2982039,-2.313299,-0.01504164,0.03225596,0.9601334,0.1352437,32.78186,-25.68729,-6.504226,1001.505
13.719817638,-0.9109564,-2.25353,0.2290912,-0.01026393,0.966159,0.1480766,32.78022,-25.68884,-6.065096,1001.507
13.740001678,-0.2982039,-1.117924,0.6563238,0.00977603,1.023345,0.1769144,32.78022,-25.68884,-6.065096,1001.507
13.760184765,-0.2982039,-1.117924,0.4121909,0.01419536,0.9380657,0.1348334,32.78828,-26.0597,-5.625837,1001.507
13.780368805,-0.3594792,0.07745139,0.6563238,0.0101941,0.9890671,0.1650439,32.78828,-26.0597,-5.625837,1001.507
13.800551891,-0.1143782,0.4360639,0.717357,-0.002209275,1.017354,0.1768134,32.78828,-26.0597,-5.625837,1001.507
13.820735931,-0.3594792,1.153289,0.2901244,0.04764359,0.9635356,0.1571848,32.78186,-25.68729,-6.504226,1001.507
13.840919018,-0.2369287,0.5556014,0.4121909,0.004129553,0.8936183,0.1067196,32.78186,-25.68729,-6.504226,1001.505
13.858579636,-0.1756534,1.272827,0.5952905,0.01015114,0.9923031,0.1806788,33.15334,-25.68834,-6.502748,1001.505
13.878763676,0.008172336,2.348664,0.4121909,0.01257824,1.031364,0.1541994,33.15334,-25.68834,-6.502748,1001.505
13.898947239,0.1919981,2.408433,0.3511577,0.02012393,1.005898,0.1439526,33.15334,-25.68834,-6.502748,1001.505
13.919130802,0.7434754,2.767045,0.3511577,0.04144309,0.9980848,0.1330618,32.78992,-26.05815,-6.064967,1001.505
13.939314842,1.111127,2.587739,-0.01504164,0.02664816,0.9854003,0.1196946,32.78992,-26.05815,-6.064967,1001.505
13.959498405,0.5596497,1.810745,-0.3202077,-0.004451613,1.003156,0.1882138,32.42979,-26.42487,-6.505447,1001.507
13.979681969,0.9885765,1.392364,-0.01504164,0.01408233,0.9867896,0.1562345,32.42979,-26.42487,-6.505447,1001.507
13.999865532,1.111127,2.886583,0.2901244,0.03180639,0.9966545,0.1651623,32.42979,-26.42487,-6.505447,1001.507
14.020049095,0.6209249,3.603808,-0.1371081,0.003540841,0.9409366,0.1713999,32.80607,-26.73677,-5.625602,1001.507
14.040232658,-0.4207545,3.185426,0.5952905,-0.01765711,0.9384091,0.1991164,32.80607,-26.73677,-5.625602,1001.507
14.060416698,-0.8496812,4.44057,0.717357,-0.01708059,1.049636,0.2217535,33.1711,-26.42852,-6.06336,1001.507
14.080599785,0.008172336,6.114096,1.388722,-0.004366036,1.075949,0.1770031,33.1711,-26.42852,-6.06336,1001.507
14.100783825,0.6209249,4.978489,0.8394234,-0.03399652,0.9737479,0.1779434,33.1711,-26.42852,-6.06336,1001.507
14.120966911,0.008172336,6.293402,0.9614899,0.01800054,1.060465,0.2082919,33.15975,-26.06075,-5.624359,1001.507
14.138627529,-0.4820297,6.41294,1.144589,0.01599845,0.9480532,0.1564382,33.15975,-26.06075,-5.624359,1001.507
14.158811569,-2.320287,7.130165,1.815955,-0.01563483,0.9693195,0.2610351,32.79799,-26.42901,-5.625709,1001.507
14.178995609,-1.707535,7.309471,2.182154,-0.02360678,1.031294,0.2048562,32.79799,-26.42901,-5.625709,1001.507
14.199178696,-0.1756534,6.532477,2.243188,0.001673293,1.016547,0.1174282,32.79799,-26.42901,-5.625709,1001.509
14.219362736,1.172402,4.858952,0.9004567,0.05264173,1.029318,0.1273378,33.15811,-26.06229,-5.185228,1001.509
14.239545822,1.662604,4.022189,1.693888,0.03898903,1.159872,0.1829797,33.15811,-26.06229,-5.185228,1001.509
14.259729862,1.294953,4.619877,1.632855,0.07108024,1.098897,0.174427,32.42486,-26.4295,-5.188057,1001.509
14.279912949,0.6209249,5.157795,0.9614899,0.08000799,1.157096,0.2310366,32.42486,-26.4295,-5.188057,1001.511
14.300096989,-0.9109564,4.44057,1.205623,-0.01441055,1.028413,0.2159771,32.78663,-26.06124,-5.186707,1001.511
14.320280552,-1.401159,5.396871,1.388722,0.0007398719,0.8943439,0.1262024,32.78663,-26.06124,-5.186707,1001.509
14.340464115,-0.6045802,6.173864,1.327689,-0.04518694,0.8639022,0.09793194,32.78663,-26.06124,-5.186707,1001.509
14.360647678,1.417503,7.309471,1.388722,0.01646456,1.068574,0.1700144,32.80443,-26.73832,-5.186471,1001.509
14.380831719,1.233677,5.815252,0.9614899,-0.007808963,0.9233845,0.1165714,32.80443,-26.73832,-5.186471,1001.509
14.401015282,0.3145486,5.695714,1.449756,-0.01211026,0.9990299,0.1531091,32.06147,-26.73621,-5.189428,1001.509
14.418675900,-0.6658554,3.902652,1.571822,0.008229447,1.031548,0.1780522,32.06147,-26.73621,-5.189428,1001.509
14.438859463,-1.952636,3.424501,1.632855,0.03306759,1.012368,0.146008,32.06147,-26.73621,-5.189428,1001.509
14.459043026,-0.7884059,2.647508,1.144589,0.03177264,0.9213598,0.08679147,33.1745,-26.74069,-4.808596,1001.509
14.479226589,0.6822002,1.750977,0.5342574,0.03327454,0.9955415,0.1330234,33.1745,-26.74069,-4.808596,1001.511
14.499410629,0.5596497,1.392364,0.2901244,0.04481513,0.9978405,0.1627338,32.81273,-27.10896,-4.809946,1001.511
14.519593716,-0.6045802,0.7349077,0.5952905,0.02167775,0.9963545,0.1802554,32.81273,-27.10896,-4.809946,1001.507
14.539777756,-0.1756534,1.930283,0.5342574,0.01316347,0.9431427,0.1587782,32.81273,-27.10896,-4.809946,1001.507
14.559960842,0.008172336,2.707276,1.022523,-0.01301081,0.953988,0.1497861,32.43154,-26.73859,-4.811553,1001.511
14.580144882,-0.05310292,4.380802,1.083556,-0.007949106,0.8944531,0.1510333,32.43154,-26.73859,-4.811553,1001.511
14.600327969,-1.156057,5.217565,0.2290912,0.00510292,0.8914602,0.1791769,32.42345,-26.43083,-4.81166,1001.511
14.620512009,-0.9109564,4.739414,1.388722,-0.04074526,0.9332367,0.1975882,32.42345,-26.43083,-4.81166,1001.511
14.640696049,-0.6045802,5.337102,1.083556,-0.01121711,1.004784,0.1605205,32.42345,-26.43083,-4.81166,1001.509
14.660879135,-2.504113,5.157795,1.144589,0.02225891,1.067349,0.2045292,32.79329,-26.43342,-4.371051,1001.509
14.681063175,-1.707535,4.261264,1.693888,-0.004002872,0.9288598,0.05877039,32.79329,-26.43342,-4.371051,1001.511
14.698723793,-1.156057,4.679646,1.754922,0.02975739,1.00803,0.08996952,32.79,-26.43651,-3.492791,1001.511
14.718906879,-0.2982039,4.022189,1.510789,0.02706798,0.9909138,0.1017994,32.79,-26.43651,-3.492791,1001.511
14.739090919,0.06944759,4.321033,1.449756,0.0204403,0.9410197,0.09060331,32.79,-26.43651,-3.492791,1001.511
14.759274483,-0.1143782,4.44057,1.999055,-0.01242314,0.9462295,0.1024327,32.80138,-26.74118,-4.370944,1001.511
14.779458046,-0.7884059,5.098027,1.144589,0.01816051,1.04848,0.1467446,32.80138,-26.74118,-4.370944,1001.511
14.799641609,0.8047507,4.560108,0.7783902,0.02530017,0.978025,0.07965048,32.43796,-27.111,-3.933164,1001.511
14.819825172,2.030256,3.424501,0.8394234,0.03513151,1.042843,0.05658955,32.43796,-27.111,-3.933164,1001.511
14.840009212,2.030256,3.663577,1.266656,0.01539896,0.9993286,0.06646222,32.43796,-27.111,-3.933164,1001.511
14.860192776,-0.5433049,3.00612,0.168058,0.05812909,0.9738404,0.1598063,32.4299,-26.74014,-4.372423,1001.511
14.880376339,0.008172336,2.109589,0.4121909,0.05538085,1.002172,0.1326356,32.4299,-26.74014,-4.372423,1001.511
14.900559902,1.907705,3.00612,0.6563238,0.02403173,1.003298,0.06993422,32.43491,-27.11386,-3.117636,1001.511
14.920743942,0.6822002,4.799183,0.4121909,0.04130211,1.0097,0.134265,32.43491,-27.11386,-3.117636,1001.511
14.940927029,-0.2369287,6.054327,0.2290912,0.0411983,0.8996323,0.09315983,32.41852,-26.43546,-3.49427,1001.511
14.958587646,-0.7271307,5.875021,-0.2591745,0.02262326,0.9977109,0.1914724,32.41852,-26.43546,-3.49427,1001.511
14.978771687,0.4370991,4.799183,0.168058,0.01912848,1.086491,0.2238896,32.41852,-26.43546,-3.49427,1001.511
14.998954773,1.356228,3.603808,0.2290912,-0.03194917,1.044437,0.137493,32.05513,-26.74217,-3.495641,1001.511
15.019138813,1.356228,2.587739,0.7783902,-0.02240551,1.014043,0.0896785,32.05513,-26.74217,-3.495641,1001.511
15.039321899,0.6209249,2.288895,0.7783902,-0.01213953,0.9627818,0.09497453,32.06343,-27.11281,-3.119115,1001.511
15.059505939,0.4983744,1.033751,0.4732241,0.01148763,1.002605,0.1210305,32.06343,-27.11281,-3.119115,1001.509
15.079689980,0.06944759,1.033751,0.168058,0.02177791,0.9891215,0.1280474,32.06343,-27.11281,-3.119115,1001.509
15.099873066,-0.4207545,2.288895,-0.07607486,0.04225371,0.9709443,0.1349564,32.43632,-27.11254,-3.494034,1001.509
15.120057106,-0.7271307,2.04982,0.04599158,0.03397596,1.016471,0.1733367,32.43632,-27.11254,-3.494034,1001.509
15.140240192,0.3145486,2.288895,0.1070248,0.02447795,1.005177,0.1254416,32.43326,-27.11541,-2.678506,1001.508
15.160424233,0.1307229,2.826814,0.1070248,0.03134632,0.9955708,0.1271878,32.43326,-27.11541,-2.678506,1001.508
15.180607796,0.06944759,2.826814,0.2290912,0.0005343498,0.9905799,0.1446514,32.43326,-27.11541,-2.678506,1001.508
15.200791359,-0.6045802,2.348664,-0.07607486,-0.01508546,1.005797,0.1503279,32.79668,-26.7456,-3.116286,1001.508
15.220974922,-0.7884059,2.52797,0.4121909,-0.00513938,0.9417701,0.123257,32.79668,-26.7456,-3.116286,1001.508
15.238635540,-0.2982039,2.826814,0.4121909,-0.008300136,1.002899,0.1595058,32.04564,-26.43573,-3.119351,1001.508
15.258819103,0.1919981,2.468201,0.6563238,-0.01074539,1.005862,0.1503228,32.04564,-26.43573,-3.119351,1001.498
15.279002667,-0.7884059,2.587739,0.7783902,-0.003729951,0.9445287,0.1403401,32.04564,-26.43573,-3.119351,1001.498
15.299186707,-0.1756534,1.870514,0.7783902,-0.009545282,0.9865741,0.1426405,32.42356,-26.74609,-2.678635,1001.498
15.319370270,-0.2369287,1.332595,0.5342574,0.05129524,0.9804825,0.1638405,32.42356,-26.74609,-2.678635,1001.498
15.339553833,-0.1143782,0.3165264,0.8394234,0.02277373,0.985911,0.1600971,32.43326,-27.11541,-2.678506,1001.498
15.359737873,0.4983744,0.2567576,0.2290912,0.02945902,0.9921951,0.1227445,32.43326,-27.11541,-2.678506,1001.498
15.379920960,0.2532734,-0.1018549,0.2901244,0.0411059,0.9858289,0.1469307,32.43326,-27.11541,-2.678506,1001.496
15.400105000,0.2532734,0.1969889,0.1070248,0.03413118,0.9644488,0.1426251,32.43491,-27.11386,-3.117636,1001.496
15.420288086,0.3145486,0.3165264,-0.1981413,0.03988702,1.006473,0.1643716,32.43491,-27.11386,-3.117636,1001.496
15.440472126,0.6209249,0.7349077,0.1070248,0.02098668,1.013987,0.1601688,32.05208,-26.74504,-2.680114,1001.496
15.460655213,0.1307229,1.392364,0.04599158,0.03094427,0.9886186,0.1435947,32.05208,-26.74504,-2.680114,1001.49
15.480839253,0.1919981,1.57167,-0.07607486,0.03146026,0.9855989,0.1556989,32.43632,-27.11254,-3.494034,1001.49
15.501022339,0.008172336,1.511902,-0.07607486,0.006169776,0.9637183,0.1256212,32.43632,-27.11254,-3.494034,1001.49
15.518683910,-0.1756534,1.631439,0.1070248,0.009578625,1.000345,0.1506704,32.43632,-27.11254,-3.494034,1001.49
15.538866997,0.6822002,0.9739827,0.04599158,-0.00025872,1.016262,0.1432145,32.4252,-26.74455,-3.117765,1001.488
15.559051037,0.1307229,0.7946764,-0.07607486,0.01741185,0.9511402,0.1404399,32.4252,-26.74455,-3.117765,1001.488
15.579234123,-0.7271307,0.7349077,-0.381241,0.01608063,0.9809191,0.164874,32.06985,-27.48522,-2.240726,1001.492
15.599418163,-0.1143782,0.3762951,-0.2591745,-0.0002500289,0.9753962,0.1599228,32.06985,-27.48522,-2.240726,1001.492
15.619601250,0.1919981,0.5556014,-0.3202077,0.02934119,1.000876,0.1754678,32.06985,-27.48522,-2.240726,1001.492
15.639785290,0.4370991,1.272827,0.2290912,0.02910263,0.9416152,0.1412074,32.44461,-27.48318,-3.117508,1001.492
15.659968853,-0.5433049,1.691208,-0.6253738,0.04949502,1.008439,0.2247332,32.44461,-27.48318,-3.117508,1001.488
15.680152416,-0.2369287,1.332595,-0.381241,0.004431054,0.9870632,0.1630663,32.42356,-26.74609,-2.678635,1001.488
15.700335979,1.049852,0.9739827,-0.1981413,-0.00138322,0.9508739,0.0903438,32.42356,-26.74609,-2.678635,1001.487
15.720520019,0.6822002,1.57167,-0.4422742,0.04977069,1.026274,0.1856722,32.42356,-26.74609,-2.678635,1001.487
15.740703583,1.172402,0.6153702,-0.5033074,-0.01489869,1.068532,0.2250439,32.43162,-27.11695,-2.239376,1001.487
15.760887146,0.06944759,1.09352,-0.5643406,0.0195093,0.8983078,0.09657156,32.43162,-27.11695,-2.239376,1001.487
15.778547764,-0.6045802,0.675139,-0.4422742,0.02378095,0.9817029,0.1950466,32.43326,-27.11541,-2.678506,1001.487
15.798731327,0.8047507,1.272827,0.1070248,0.007764026,0.9913453,0.1271388,32.43326,-27.11541,-2.678506,1001.485
15.818914890,0.008172336,1.990052,0.5342574,-0.02816536,0.9310718,0.1415694,32.43326,-27.11541,-2.678506,1001.485
15.839098930,-0.9722317,2.647508,0.1070248,0.04409277,0.9384418,0.1416092,32.43162,-27.11695,-2.239376,1001.489
15.859282017,0.008172336,1.810745,0.04599158,0.003787606,0.9999067,0.186191,32.43162,-27.11695,-2.239376,1001.489
15.879466057,1.294953,0.3165264,0.2901244,0.01595623,0.9919658,0.1256793,32.06985,-27.48522,-2.240726,1001.485
15.899649143,-0.8496812,1.631439,-0.5033074,0.03555045,0.8867908,0.1581166,32.06985,-27.48522,-2.240726,1001.485
15.919833183,-1.278608,0.914214,-0.381241,0.03809157,0.9555319,0.1682319,32.06985,-27.48522,-2.240726,1001.485
15.940016270,-0.3594792,0.4360639,-1.052606,0.02928279,1.005744,0.1731313,32.44297,-27.48472,-2.678378,1001.485
15.960200310,0.1307229,-0.4006987,-0.381241,0.001470727,0.9138287,0.1168553,32.44297,-27.48472,-2.678378,1001.485
15.980384350,-0.2369287,0.3762951,-0.5033074,0.02920531,0.893976,0.1081497,32.44132,-27.48627,-2.239248,1001.485
16.000567436,-1.156057,0.7349077,-0.9305399,0.05186226,0.9342793,0.1332434,32.44132,-27.48627,-2.239248,1001.485
16.020751476,0.3758239,1.452133,-0.686407,0.0200399,1.052171,0.1682247,32.06179,-27.11436,-2.679985,1001.485
16.040934563,-0.1756534,3.125658,-0.381241,0.02778211,1.049632,0.1915192,32.06179,-27.11436,-2.679985,1001.491
16.058595181,0.4370991,4.022189,0.4732241,-0.003571399,1.010749,0.1567346,32.06179,-27.11436,-2.679985,1001.491
16.078779221,0.4370991,5.098027,0.3511577,-0.0227738,1.004064,0.1181902,32.06985,-27.48522,-2.240726,1001.488
16.098962784,0.7434754,5.576177,0.6563238,-0.01668089,1.018687,0.1184706,32.06985,-27.48522,-2.240726,1001.488
16.119146347,1.356228,5.456639,1.205623,-0.02841153,1.031704,0.107554,32.45103,-27.85558,-2.239119,1001.488
16.139329910,0.1919981,7.010627,1.693888,-0.01788876,0.959011,0.1245901,32.45103,-27.85558,-2.239119,1001.488
16.159513474,-0.3594792,6.652015,1.632855,-0.02942322,0.9949265,0.1501338,32.45103,-27.85558,-2.239119,1001.492
16.179697037,-1.462434,6.950858,1.693888,0.02744642,0.9582081,0.1755993,32.43968,-27.48781,-1.800117,1001.492
16.199881077,-1.278608,7.907159,2.121121,0.009609158,0.9574059,0.1809621,32.43968,-27.48781,-1.800117,1001.494
16.220064640,-0.2982039,7.369239,1.815955,0.01514872,1.05707,0.2043362,32.44132,-27.48627,-2.239248,1001.494
16.240248203,0.2532734,7.010627,1.632855,0.05109986,0.9963261,0.1782653,32.44132,-27.48627,-2.239248,1001.494
16.260432243,-0.5433049,7.429008,1.327689,0.05050866,1.004762,0.2061686,32.44132,-27.48627,-2.239248,1001.494
16.280615330,-0.1143782,6.652015,1.144589,0.0116749,1.025738,0.182798,32.07791,-27.85608,-1.801468,1001.492
16.300799370,0.2532734,6.233633,1.449756,-0.004257197,0.9882023,0.1329333,32.07791,-27.85608,-1.801468,1001.492
16.320982456,-1.339883,6.831321,0.9004567,0.06015762,1.043942,0.2273665,32.0668,-27.48809,-1.425199,1001.492
16.338643074,-1.462434,7.488777,1.327689,0.03386215,0.9858391,0.1839221,32.0668,-27.48809,-1.425199,1001.492
16.358827114,-0.7884059,8.504846,1.510789,-0.0006551387,0.96916,0.1529877,32.0668,-27.48809,-1.425199,1001.491
16.379010201,0.1307229,8.146234,1.266656,0.01999822,1.015866,0.1645867,31.32525,-27.48466,-1.804553,1001.491
16.399194241,0.3758239,7.608315,1.449756,0.01393129,0.9598663,0.1347787,31.32525,-27.48466,-1.804553,1001.489
16.419378281,-0.1756534,7.84739,1.022523,0.02596164,1.00147,0.1594272,32.42997,-27.1185,-1.800246,1001.489
16.439561367,0.2532734,7.668083,0.9614899,0.02915983,1.01594,0.1709003,32.42997,-27.1185,-1.800246,1001.489
16.459745407,0.3758239,7.249702,1.022523,0.02976339,1.045263,0.1953226,32.42997,-27.1185,-1.800246,1001.489
16.479928494,0.06944759,8.265771,0.6563238,0.01663975,1.014325,0.1684538,31.70338,-27.85789,-0.9874188,1001.487
16.500112534,-0.7884059,9.281839,0.7783902,0.02528238,0.9775246,0.1789043,31.70338,-27.85789,-0.9874188,1001.487
16.520296097,-0.3594792,10.05883,1.388722,0.01284019,0.9697434,0.1631978,32.07486,-27.85894,-0.9859401,1001.493
16.540479660,0.8047507,10.83583,1.510789,0.02109884,1.004837,0.1546351,32.07486,-27.85894,-0.9859401,1001.493
16.560663223,1.111127,10.83583,1.327689,0.008308708,1.064172,0.2108125,31.33191,-27.85685,-0.9888973,1001.491
16.580846787,0.3758239,11.01513,0.4121909,0.01817824,1.084744,0.2520784,31.33191,-27.85685,-0.9888973,1001.491
16.601030350,0.5596497,9.879527,0.8394234,-0.003105058,0.8934144,0.116458,31.33191,-27.85685,-0.9888973,1001.491
16.618690968,0.9273012,9.102533,1.510789,-0.04199564,0.9977093,0.1438817,31.70174,-27.85944,-0.5482886,1001.491
16.638875008,0.4983744,8.684153,1.938021,0.01058517,1.036698,0.1509018,31.70174,-27.85944,-0.5482886,1001.489
16.659058571,0.4370991,8.026696,1.815955,-0.004354067,0.957031,0.1002017,31.32744,-27.86104,0.2030273,1001.489
16.679242134,0.2532734,6.41294,1.083556,0.03704653,1.041722,0.1723722,31.32744,-27.86104,0.2030273,1001.489
16.699426174,1.233677,6.054327,1.144589,0.01596315,0.9915684,0.1169128,31.32744,-27.86104,0.2030273,1001.489
16.719609260,2.091531,6.054327,1.266656,-0.01125276,1.008623,0.115344,31.32885,-27.85971,-0.17337,1001.489
16.739793301,0.4983744,6.891089,0.7783902,0.04521932,0.925678,0.1111865,31.32885,-27.85971,-0.17337,1001.489
16.759976387,-2.013911,6.831321,0.6563238,0.01587587,0.9969573,0.2084979,31.32744,-27.86104,0.2030273,1001.489
16.780160427,-1.584984,7.907159,1.144589,-0.008787028,0.9241844,0.1321595,31.32744,-27.86104,0.2030273,1001.489
16.800343513,0.3758239,7.010627,1.266656,-0.01565902,1.13172,0.2039126,31.32744,-27.86104,0.2030273,1001.489
16.820527554,-1.401159,7.070396,0.2290912,0.05740965,1.23088,0.2325301,30.96708,-28.22798,-0.17472,1001.489
16.840710640,-2.136461,7.010627,0.9614899,0.02548595,0.8840353,0.03010452,30.96708,-28.22798,-0.17472,1001.489
16.860894680,-2.565388,8.026696,1.022523,-0.01948961,1.050746,0.1551167,30.96567,-28.2293,0.2016773,1001.491
16.878555298,0.9273012,7.548546,1.449756,-0.03473284,1.036981,0.05462974,30.96567,-28.2293,0.2016773,1001.491
16.898739338,2.765559,5.217565,0.6563238,0.04348787,1.068561,0.114017,30.96567,-28.2293,0.2016773,1001.491
16.918922424,2.336632,4.022189,0.5952905,0.006043106,1.092545,0.1802358,31.01929,-27.85884,-0.1746022,1001.491
16.939106464,1.723879,4.560108,0.8394234,0.02827109,0.931259,0.1093755,31.01929,-27.85884,-0.1746022,1001.497
16.959289551,-0.1756534,5.516408,0.6563238,0.02402012,0.9220772,0.1982454,30.66253,-28.60083,1.078834,1001.497
16.979473591,-1.830085,6.41294,0.4732241,0.04552333,1.017391,0.2443796,30.66253,-28.60083,1.078834,1001.499
16.999657154,-1.094782,6.891089,0.8394234,0.022135,1.03782,0.2015121,30.66253,-28.60083,1.078834,1001.499
17.019840717,-0.3594792,7.130165,0.8394234,-0.01810559,0.9373143,0.1134561,31.034,-28.60188,1.080313,1001.499
17.040024281,-1.523709,7.907159,1.449756,0.01088856,0.8933935,0.09064792,31.034,-28.60188,1.080313,1001.499
17.060208321,-1.64626,8.206002,0.9614899,0.04341389,1.033465,0.1838775,30.96238,-28.23239,1.079937,1001.499
17.080391407,0.4370991,8.026696,0.9614899,0.01077528,0.9827117,0.07392552,30.96238,-28.23239,1.079937,1001.499
17.100575447,1.968981,7.130165,1.083556,-0.02824239,0.9402165,0.001126919,30.96238,-28.23239,1.079937,1001.499
17.120759487,0.6209249,6.353171,0.5342574,0.0811748,1.022906,0.1325215,30.66253,-28.60083,1.078834,1001.499
17.140942574,0.2532734,6.293402,1.022523,-0.01068414,0.9615836,0.1202512,30.66253,-28.60083,1.078834,1001.5
17.158603191,0.6822002,6.173864,1.022523,-0.02069838,0.9919642,0.119894,31.01459,-27.86325,1.080055,1001.5
17.178787231,0.5596497,6.353171,1.205623,0.03620982,0.9922615,0.126142,31.01459,-27.86325,1.080055,1001.496
17.198970318,0.9273012,6.532477,1.388722,0.01450873,0.9918767,0.1324918,31.01459,-27.86325,1.080055,1001.496
17.219154358,1.172402,7.189933,1.632855,0.004351283,0.9157205,0.07698838,31.3258,-27.86258,0.6421574,1001.496
17.239337444,0.2532734,7.070396,0.9614899,0.05473978,1.014241,0.1849402,31.3258,-27.86258,0.6421574,1001.496
17.259521484,0.6822002,6.950858,0.8394234,0.01630955,1.041323,0.1816399,30.66253,-28.60083,1.078834,1001.5
17.279704571,1.233677,7.369239,0.9004567,-0.0006457077,0.9689702,0.1233022,30.66253,-28.60083,1.078834,1001.5
17.299888611,0.6822002,7.249702,0.9004567,0.01965401,0.9653234,0.130499,30.28135,-28.23046,1.077227,1001.5
17.320072651,-0.2369287,6.652015,0.3511577,0.0641139,0.9969795,0.1806921,30.28135,-28.23046,1.077227,1001.5
17.340255737,0.3758239,6.054327,0.4121909,0.01358674,1.027262,0.1784461,30.28135,-28.23046,1.077227,1001.5
17.360439777,0.1307229,6.054327,0.3511577,0.01284149,1.009496,0.161065,30.67082,-28.97147,1.45536,1001.5
17.380622864,0.1919981,5.695714,0.6563238,0.002462392,0.9905361,0.1519465,30.67082,-28.97147,1.45536,1001.5
17.400806904,0.8047507,5.098027,0.3511577,-0.008194312,0.9941954,0.1578736,30.64812,-28.23593,2.333363,1001.5
17.420990467,0.4983744,4.679646,0.4121909,0.0009433453,0.9961675,0.1681175,30.64812,-28.23593,2.333363,1001.5
17.438651085,1.049852,4.201496,0.3511577,-0.002895715,0.9947537,0.1583634,30.64812,-28.23593,2.333363,1001.5
17.458834648,0.9885765,3.902652,0.168058,-0.002282783,0.9842354,0.1450165,30.28635,-28.60419,2.332013,1001.5
17.479018211,1.049852,3.783114,0.4732241,0.01116774,0.9492255,0.1287331,30.28635,-28.60419,2.332013,1001.5
17.499202252,0.866026,3.424501,0.4121909,0.02212396,1.038847,0.1956934,30.2977,-28.97196,1.893011,1001.5
17.519385338,0.3758239,3.96242,0.3511577,0.006164998,1.002969,0.1740835,30.2977,-28.97196,1.893011,1001.5
17.539569378,-0.5433049,5.098027,0.6563238,0.0256731,0.9854792,0.1591111,30.2977,-28.97196,1.893011,1001.502
17.559752941,0.1919981,6.114096,0.9004567,-0.006764812,1.03535,0.1630653,30.2977,-28.97196,1.893011,1001.502
17.579936504,0.4983744,7.070396,0.9614899,-0.00105837,1.002725,0.139055,30.2977,-28.97196,1.893011,1001.5
17.600120545,0.4370991,7.070396,0.9004567,0.001257582,1.010404,0.1499085,30.66918,-28.97301,1.89449,1001.5
17.620303631,0.9885765,7.429008,1.205623,0.007092129,0.9680082,0.08531801,30.66918,-28.97301,1.89449,1001.499
17.640487671,-0.4820297,7.84739,0.8394234,0.04915258,0.9193662,0.1183546,30.66918,-28.97301,1.89449,1001.499
17.660670757,-0.6045802,7.548546,0.5952905,0.04029782,1.01221,0.1727565,30.66753,-28.97456,2.33362,1001.499
17.680854797,-0.4207545,7.608315,0.4732241,0.02695661,0.9991592,0.1496482,30.66753,-28.97456,2.33362,1001.499
17.701037884,-0.3594792,8.086465,0.6563238,0.01824724,0.961815,0.1401634,30.29441,-28.97505,2.771272,1001.497
17.718698502,0.5596497,8.445077,0.8394234,-0.004051012,0.9713129,0.1262731,30.29441,-28.97505,2.771272,1001.497
17.738882542,0.4983744,7.84739,0.4732241,0.04666857,1.004233,0.1560453,30.29441,-28.97505,2.771272,1001.497
17.759066582,0.6822002,6.891089,-0.01504164,-0.004402148,0.9994888,0.1672179,30.29441,-28.97505,2.771272,1001.497
17.779249668,0.4370991,6.114096,0.4121909,0.000568399,0.9875772,0.1543236,30.29441,-28.97505,2.771272,1001.497
17.799433708,0.008172336,6.41294,-0.1981413,0.03277887,0.9567163,0.1385814,29.91182,-28.60601,3.146062,1001.497
17.819616795,0.1919981,5.755483,-0.01504164,0.004810059,0.9950194,0.1919318,29.91182,-28.60601,3.146062,1001.495
17.839800835,0.2532734,5.635946,-0.3202077,0.008758164,1.027642,0.1818668,29.93265,-29.34332,2.769922,1001.495
17.859984398,0.008172336,5.994558,-0.07607486,0.02575578,0.9390951,0.1460283,29.93265,-29.34332,2.769922,1001.495
17.880167961,-0.7884059,6.711783,0.1070248,0.0200602,0.9706794,0.1773167,29.93265,-29.34332,2.769922,1001.495
17.900351524,-0.4820297,6.293402,0.3511577,0.01283403,0.9702036,0.1656398,30.66448,-28.97743,3.149148,1001.495
17.920535088,0.008172336,6.173864,0.2290912,0.0002326677,0.9754419,0.1560303,30.66448,-28.97743,3.149148,1001.493
17.940718651,0.8047507,7.010627,0.4121909,-0.006629478,0.9845927,0.1513556,30.29441,-28.97505,2.771272,1001.493
17.960902691,1.172402,6.054327,0.168058,-0.004264602,1.027236,0.2032877,30.29441,-28.97505,2.771272,1001.493
17.978563309,1.907705,5.396871,0.2901244,-0.02701664,1.0352,0.1480078,30.29441,-28.97505,2.771272,1001.493
17.998746872,0.5596497,4.619877,0.5952905,-0.01142842,0.9429274,0.1437258,29.92153,-28.97533,3.14619,1001.491
18.018930435,0.7434754,4.44057,0.3511577,0.0304661,0.9879774,0.1586669,29.92153,-28.97533,3.14619,1001.491
18.039114475,0.7434754,3.96242,1.083556,-0.01341614,0.9873793,0.153367,29.92959,-29.34618,3.585449,1001.491
18.059297562,0.3145486,4.978489,0.717357,0.03907326,0.994678,0.1310515,29.92959,-29.34618,3.585449,1001.491
18.079481602,0.7434754,4.44057,0.6563238,0.03404409,1.051085,0.1521253,29.92959,-29.34618,3.585449,1001.491
18.099664688,0.4983744,4.44057,0.3511577,0.04077287,1.013562,0.1348288,29.54841,-28.97582,3.583842,1001.491
18.119848728,-0.1756534,5.396871,0.5342574,0.01212435,0.94956,0.1452823,29.54841,-28.97582,3.583842,1001.49
18.140031815,0.8047507,5.994558,0.2901244,0.009755241,1.025504,0.1545742,29.93124,-29.34464,3.146319,1001.49
18.160215855,1.601329,6.353171,0.4732241,0.03294985,1.022026,0.1491188,29.93124,-29.34464,3.146319,1001.491
18.180398941,-0.3594792,7.608315,0.9614899,-0.009292978,1.004417,0.2004105,29.93124,-29.34464,3.146319,1001.491
18.200582981,-0.5433049,9.520915,0.717357,-0.002418946,0.995279,0.154967,29.91824,-28.97842,4.02445,1001.491
18.220767021,-0.1756534,10.17837,0.5952905,0.02409675,0.9564233,0.1551322,29.91824,-28.97842,4.02445,1001.491
18.240950108,-0.1143782,9.580684,0.6563238,0.001646964,0.9379874,0.172804,28.81517,-29.34303,3.581013,1001.491
18.258610725,-0.5433049,8.982996,0.9004567,-0.004607709,1.055106,0.2262228,28.81517,-29.34303,3.581013,1001.491
18.278794766,-0.2982039,7.966928,1.266656,-0.006513249,1.014456,0.1694636,28.81517,-29.34303,3.581013,1001.49
18.298977852,-0.9109564,7.787621,1.205623,0.01056426,0.9189401,0.1524639,29.55647,-29.34668,4.0231,1001.49
18.319161892,0.5596497,6.114096,1.205623,-0.02794626,0.9529568,0.1337302,29.55647,-29.34668,4.0231,1001.49
18.339345455,0.866026,4.560108,0.9004567,0.02867492,0.937389,0.1270134,29.18829,-29.34254,3.143362,1001.49
18.359529018,-0.1756534,3.96242,0.7783902,0.02252074,1.005718,0.2145006,29.18829,-29.34254,3.143362,1001.49
18.379712582,-0.2982039,3.723345,0.717357,0.02752066,0.9923564,0.1524323,29.55647,-29.34668,4.0231,1001.49
18.399896622,0.5596497,4.560108,0.9004567,0.03170628,1.005831,0.1191183,29.55647,-29.34668,4.0231,1001.488
18.420079708,0.8047507,5.994558,0.5952905,0.04786729,0.9461553,0.1023428,29.55647,-29.34668,4.0231,1001.488
18.440263748,-0.6045802,7.309471,0.9614899,0.01052215,1.001537,0.178428,29.91824,-28.97842,4.02445,1001.488
18.460447788,0.3145486,7.070396,1.327689,-0.01369892,1.010541,0.1625844,29.91824,-28.97842,4.02445,1001.488
18.480630875,0.9273012,7.249702,1.449756,-0.02499771,0.9884804,0.1227509,29.17224,-28.97918,4.837021,1001.488
18.500814915,1.540054,7.189933,0.9004567,0.0002527406,1.013838,0.1441389,29.17224,-28.97918,4.837021,1001.488
18.520998001,0.4370991,5.875021,0.9004567,-0.03223592,0.8690419,0.136455,29.17224,-28.97918,4.837021,1001.488
18.538658619,0.4983744,5.755483,1.632855,-0.0111268,0.9580604,0.1328334,29.56453,-29.71754,4.462359,1001.488
18.558842659,1.049852,5.875021,1.144589,0.01141119,1.047567,0.1798243,29.56453,-29.71754,4.462359,1001.486
18.579025746,0.1307229,4.679646,1.327689,0.02120336,0.9167337,0.1465656,28.82323,-29.71389,4.020272,1001.486
18.599209786,0.008172336,4.619877,0.8394234,0.04825676,0.9530367,0.1418919,28.82323,-29.71389,4.020272,1001.486
18.619392872,-0.1756534,4.560108,1.693888,0.02969817,1.010891,0.1922094,28.82323,-29.71389,4.020272,1001.486
18.639576912,0.9273012,5.337102,0.5952905,0.05098303,1.124997,0.199789,28.4487,-29.71571,4.834321,1001.487
18.659760952,0.8047507,4.380802,0.2901244,0.04497041,1.024144,0.1978018,28.4487,-29.71571,4.834321,1001.487
18.679944038,0.5596497,3.544039,0.04599158,0.02999273,0.9074717,0.1653462,28.82018,-29.71676,4.835799,1001.487
18.700128078,-0.5433049,3.48427,-0.381241,0.01186627,0.968947,0.2420105,28.82018,-29.71676,4.835799,1001.487
18.720311165,0.3758239,4.201496,0.3511577,-0.006020168,0.9737753,0.1681711,28.82018,-29.71676,4.835799,1001.487
18.740495205,0.2532734,5.277333,1.022523,-0.02579524,1.052471,0.2159834,29.20944,-30.39489,4.837514,1001.487
18.760678768,-0.7271307,6.054327,1.266656,-0.01409111,0.9231725,0.1773998,29.20944,-30.39489,4.837514,1001.489
18.780862331,1.540054,6.592246,1.266656,0.01213204,0.9888721,0.1387615,28.45984,-30.0206,4.0189,1001.489
18.801045895,0.866026,5.635946,1.876988,-0.03476171,1.07521,0.254887,28.45984,-30.0206,4.0189,1001.489
18.818706512,1.233677,6.173864,1.999055,0.009478411,1.12748,0.1804356,28.45984,-30.0206,4.0189,1001.489
18.838890552,-0.6045802,6.592246,1.571822,0.01423897,0.896208,0.05615104,28.44708,-29.65416,4.834299,1001.487
18.859073639,-2.013911,6.41294,1.388722,0.03040391,0.9925312,0.1879523,28.44708,-29.65416,4.834299,1001.487
18.879257679,-1.401159,4.858952,0.9614899,0.01690102,1.031939,0.2004302,28.4357,-29.34948,5.712452,1001.487
18.899441242,0.7434754,4.201496,1.632855,0.01389475,1.120276,0.2294318,28.4357,-29.34948,5.712452,1001.487
18.919624805,-0.4207545,4.918721,0.8394234,0.01329993,0.9321232,0.1463952,28.4357,-29.34948,5.712452,1001.487
18.939808846,-0.4820297,3.603808,1.083556,0.04174141,0.8940076,0.1237027,28.08367,-30.02396,5.272079,1001.487
18.959991932,0.9273012,3.902652,0.4732241,0.07159822,1.135688,0.1785605,28.08367,-30.02396,5.272079,1001.487
18.980175972,1.540054,3.783114,-0.01504164,0.04242671,0.9977436,0.07125704,28.08367,-30.02396,5.272079,1001.487
19.000359058,-0.7884059,3.065889,0.5952905,0.052301,1.017739,0.1217567,28.08367,-30.02396,5.272079,1001.487
19.020543098,-1.523709,5.038258,0.717357,-0.02370124,1.079614,0.1693186,27.76766,-29.71378,4.83161,1001.487
19.040726185,1.723879,5.576177,0.717357,-0.01148972,0.9504645,0.01882227,27.76766,-29.71378,4.83161,1001.487
19.060910225,4.236165,5.875021,0.04599158,-0.02899455,1.078523,0.1736841,27.76766,-29.71378,4.83161,1001.487
19.078570843,3.562137,5.815252,0.717357,-0.01655861,0.8498518,0.09177279,29.19645,-30.02866,5.715645,1001.487
19.098754883,0.3758239,8.445077,1.022523,0.01197269,0.88197,0.1692473,29.19645,-30.02866,5.715645,1001.486
19.118937969,-1.339883,9.939296,1.999055,0.02474326,1.060832,0.2301857,28.07393,-29.71775,5.711102,1001.486
19.139122009,-1.523709,10.41745,2.243188,0.0362093,1.031865,0.1390904,28.07393,-29.71775,5.711102,1001.487
19.159305096,0.1919981,10.95537,0.9614899,0.05591799,1.038608,0.07496552,28.07393,-29.71775,5.711102,1001.487
19.179489136,1.049852,9.999064,0.3511577,0.05867847,1.010318,0.04909906,28.07558,-29.7162,5.271972,1001.487
19.199672699,1.294953,8.80369,0.2901244,0.04567308,1.048087,0.0810072,28.07558,-29.7162,5.271972,1001.487
19.219856262,-0.6658554,7.548546,-0.1981413,0.026923,0.9635208,0.07887445,28.08202,-30.02551,5.711209,1001.487
19.240039825,-1.339883,6.771552,0.1070248,-0.01025687,1.045065,0.1554773,28.08202,-30.02551,5.711209,1001.487
19.260223866,-0.8496812,5.815252,-0.1371081,0.03163144,1.012249,0.1070808,28.08202,-30.02551,5.711209,1001.489
19.280406952,-0.3594792,4.918721,0.3511577,-0.01562922,0.9717219,0.1165664,28.07897,-30.02838,6.526737,1001.489
19.300590992,0.008172336,5.456639,1.083556,-0.001333264,1.0246,0.1803616,28.07897,-30.02838,6.526737,1001.491
19.320774078,1.785155,5.576177,1.083556,-0.01656693,0.9700406,0.08928566,28.47126,-30.76674,6.152076,1001.491
19.340958119,1.84643,5.994558,1.266656,-0.03076065,0.9468393,0.1112303,28.47126,-30.76674,6.152076,1001.491
19.358618736,1.785155,5.994558,1.388722,-0.02779422,1.019609,0.1554858,28.47126,-30.76674,6.152076,1001.491
19.378802776,0.2532734,5.994558,1.388722,-0.01604685,1.005067,0.173671,27.77082,-30.02618,6.149107,1001.489
19.398985863,-0.9722317,5.875021,1.632855,-0.0006077079,1.004971,0.1575891,27.77082,-30.02618,6.149107,1001.489
19.419169903,-0.7271307,5.875021,1.632855,0.01377184,1.012508,0.1518781,28.09173,-30.39482,5.711338,1001.489
19.439352989,-0.1756534,4.978489,1.266656,0.01157925,0.9550208,0.1312801,28.09173,-30.39482,5.711338,1001.489
19.459537029,0.1919981,4.679646,0.7783902,0.01633476,0.9602368,0.1498667,28.09173,-30.39482,5.711338,1001.485
19.479720116,-0.1756534,4.560108,0.9004567,0.02643776,0.9622955,0.1528121,27.78052,-30.3955,6.149236,1001.485
19.499904156,0.06944759,5.456639,0.5952905,0.05022852,0.9894665,0.1357978,27.78052,-30.3955,6.149236,1001.484
19.520087242,0.4370991,6.353171,0.9614899,0.02588878,1.008051,0.1308489,27.40599,-30.39731,6.963285,1001.484
19.540271282,0.5596497,8.026696,1.083556,0.001392519,0.9992593,0.1501743,27.40599,-30.39731,6.963285,1001.484
19.560455322,1.540054,8.086465,0.8394234,-0.004638938,1.019666,0.1355029,27.38984,-29.71869,6.523919,1001.484
19.580638409,-0.2369287,6.592246,1.510789,-0.0417459,0.9370183,0.1567912,27.38984,-29.71869,6.523919,1001.482
19.600822449,-0.8496812,7.070396,1.938021,-0.05452432,0.9963518,0.1643099,27.38984,-29.71869,6.523919,1001.482
19.621006012,-1.278608,6.353171,2.182154,-0.009838747,1.010792,0.1431202,27.40905,-30.39444,6.147758,1001.484
19.638666630,-0.2369287,6.532477,2.426287,0.02232024,1.024048,0.1248451,27.40905,-30.39444,6.147758,1001.484
19.658850193,1.84643,6.41294,1.693888,0.04887016,0.984143,0.03545758,27.77747,-30.39837,6.964764,1001.478
19.679033756,2.030256,4.619877,1.144589,0.03085776,1.035656,0.1396599,27.77747,-30.39837,6.964764,1001.478
19.699217319,1.601329,3.304964,0.9004567,-0.0009928845,0.9578277,0.1225956,27.77747,-30.39837,6.964764,1001.478
19.719400883,0.6822002,3.304964,1.327689,0.0160713,1.021732,0.1535171,27.01672,-29.71918,6.961571,1001.478
19.739584923,0.3145486,3.48427,1.510789,0.04480115,0.999593,0.1326001,27.01672,-29.71918,6.961571,1001.478
19.759768009,0.06944759,2.826814,1.083556,0.02043223,0.9809675,0.1176696,27.03452,-30.39626,6.961806,1001.478
19.779952049,-1.094782,0.1372201,0.4121909,-0.004823906,0.997694,0.005636213,27.03452,-30.39626,6.961806,1001.478
19.800136089,0.008172336,-0.9983862,0.5342574,0.05789835,0.9539008,0.1180521,27.03452,-30.39626,6.961806,1001.478
19.820319176,0.866026,-1.835149,0.4121909,0.04042744,0.9629182,0.1109574,27.03616,-30.39472,6.522676,1001.478
19.840503216,0.6822002,-1.29723,0.168058,0.0552392,0.9731151,0.1797462,27.03616,-30.39472,6.522676,1001.478
19.860686302,0.6822002,1.153289,0.04599158,0.05835466,0.9933502,0.2448582,27.40763,-30.39577,6.524155,1001.474
19.880870342,0.2532734,2.886583,0.04599158,0.05155434,0.9582715,0.2052469,27.40763,-30.39577,6.524155,1001.474
19.898530960,-1.156057,5.157795,0.168058,0.009819316,0.9389056,0.238986,27.40763,-30.39577,6.524155,1001.474
19.918714046,-0.9109564,7.309471,0.04599158,0.01831666,0.9945955,0.2060146,27.40599,-30.39731,6.963285,1001.474
19.938898087,-0.1756534,8.504846,0.7783902,-0.0005229964,0.9974301,0.1851752,27.40599,-30.39731,6.963285,1001.476
19.959081173,1.723879,8.743921,1.815955,-0.0748423,0.9617516,0.1539232,26.67274,-30.76453,6.960456,1001.476
19.979265213,2.826834,7.727852,1.938021,-0.04562778,1.018144,0.1788391,26.67274,-30.76453,6.960456,1001.476
19.999449253,1.478778,7.787621,1.632855,-0.01817918,1.021187,0.2061079,26.67274,-30.76453,6.960456,1001.476
20.019632339,-0.2369287,6.831321,2.121121,0.004800295,0.9565056,0.1668403,26.66304,-30.39521,6.960328,1001.476
20.039816380,-0.1143782,5.396871,2.85352,-0.02587368,1.019914,0.1764122,26.66304,-30.39521,6.960328,1001.474
20.059999466,-1.707535,5.337102,1.876988,-0.001537551,1.040677,0.2200936,27.02317,-30.02849,7.400807,1001.474
20.080183506,0.8047507,4.858952,2.609387,0.02243828,0.9341533,0.1508012,27.02317,-30.02849,7.400807,1001.47
20.100367069,2.459183,4.619877,2.609387,0.04978001,1.065721,0.1655297,27.40435,-30.39886,7.402415,1001.47
20.120550633,2.214082,6.41294,2.304221,0.06615285,0.9886519,0.1440303,27.40435,-30.39886,7.402415,1001.469
20.140734196,-0.9109564,8.265771,1.693888,0.1253425,0.8796853,0.1782808,27.40435,-30.39886,7.402415,1001.469
20.160918236,-2.013911,8.564614,0.717357,0.09823209,1.005981,0.2523484,26.28992,-30.39571,7.397979,1001.474
20.178578854,-2.687939,9.640452,0.9004567,0.03294505,0.8640156,0.1056049,26.28992,-30.39571,7.397979,1001.474
20.198761940,-3.116866,9.700221,0.5342574,0.05433294,0.8889253,0.1664032,25.54697,-30.3936,7.395021,1001.474
20.218945980,0.1307229,7.548546,-0.07607486,-0.01288498,0.9440291,0.128179,25.54697,-30.3936,7.395021,1001.474
20.239130020,3.13321,5.396871,0.2901244,0.04563034,0.9720483,0.07755601,25.54697,-30.3936,7.395021,1001.474
20.259313107,-0.6658554,6.652015,-0.5643406,0.06278631,1.064765,0.2812993,25.91845,-30.39466,7.3965,1001.474
20.279497147,-0.9109564,6.711783,-0.1371081,0.015977,0.9888344,0.1971455,25.91845,-30.39466,7.3965,1001.474
20.299680233,0.5596497,7.369239,-0.8084735,0.02340351,1.170166,0.2941481,26.29657,-30.76789,8.213634,1001.474
20.319864273,1.478778,9.75999,0.168058,0.03594911,0.8954021,0.07216059,26.29657,-30.76789,8.213634,1001.476
20.340047360,2.214082,11.73236,1.266656,-0.01769159,1.060313,0.2190462,26.29657,-30.76789,8.213634,1001.476
20.360231400,3.13321,12.68866,1.938021,-0.05887301,1.116452,0.1642603,26.29798,-30.76657,7.837237,1001.482
20.380414486,0.6209249,15.19895,2.48732,-0.03710181,0.9920603,0.1345176,26.29798,-30.76657,7.837237,1001.482
20.400598526,0.008172336,14.60126,1.815955,0.008028407,1.164891,0.3145029,25.9348,-31.13615,8.212285,1001.482
20.420782089,0.4370991,14.18288,2.182154,-0.02231338,0.8872081,0.07840957,25.9348,-31.13615,8.212285,1001.482
20.440965653,3.745963,13.34612,2.914553,-0.03255721,0.8996847,-0.07119717,25.9348,-31.13615,8.212285,1001.485
20.458626270,2.520458,14.00357,2.975586,0.04422935,1.086986,0.1138939,26.29657,-30.76789,8.213634,1001.485
20.478810310,-0.7271307,14.36218,0.9614899,0.110886,1.036978,0.2237481,26.29657,-30.76789,8.213634,1001.485
20.498993397,2.336632,11.8519,0.9004567,0.02142119,0.9017769,-0.006032387,25.92345,-30.76838,8.651286,1001.485
20.519177437,2.765559,10.77606,1.083556,-0.02088089,0.8899346,0.001094133,25.92345,-30.76838,8.651286,1001.485
20.539361000,2.520458,10.1186,0.168058,0.006642194,0.9648535,0.1095856,25.92345,-30.76838,8.651286,1001.485
20.559544563,2.152806,7.488777,1.693888,-0.02499991,0.8713007,0.01727534,25.56004,-31.13819,9.089067,1001.485
20.579728127,-1.033507,8.684153,-0.3202077,0.06048966,1.17568,0.2333794,25.56004,-31.13819,9.089067,1001.485
20.599912167,2.949385,4.619877,-0.3202077,0.02224287,1.151132,0.06215778,25.18856,-31.13714,9.087588,1001.487
20.620095253,-0.6045802,6.771552,0.9614899,-0.009538439,1.026785,0.0942911,25.18856,-31.13714,9.087588,1001.487
20.640279293,-0.1143782,6.173864,0.7783902,-0.03030661,0.79175,0.01814163,25.18856,-31.13714,9.087588,1001.491
20.660462379,1.907705,7.608315,2.731453,-0.06710236,1.00061,0.1069954,25.57139,-31.50596,8.650064,1001.491
20.680646419,1.049852,10.29791,1.815955,-0.04372659,1.061343,0.1251936,25.57139,-31.50596,8.650064,1001.489
20.700830460,-3.178141,13.10704,3.219719,0.04319026,0.9686511,0.367498,24.82538,-31.50673,9.462635,1001.489
20.721013546,1.172402,14.84033,2.609387,0.1547195,1.278204,0.3452388,24.82538,-31.50673,9.462635,1001.489
20.738674164,0.8047507,11.8519,1.205623,0.03344589,1.294878,0.3880799,24.82538,-31.50673,9.462635,1001.489
20.758858204,-0.1756534,9.162302,0.3511577,0.03165861,0.8104477,0.1308223,24.81709,-31.13609,9.08611,1001.485
20.779041290,-0.8496812,9.341608,1.571822,0.09355531,1.113606,0.2394012,24.81709,-31.13609,9.08611,1001.485
20.799225330,-2.687939,11.37375,0.8394234,0.1428807,0.9032745,0.2687404,24.81568,-31.13741,9.462507,1001.489
20.819408417,0.1307229,13.34612,0.5342574,0.06465889,0.8716019,0.2185966,24.81568,-31.13741,9.462507,1001.489
20.839592457,0.5596497,14.24265,1.999055,-0.03377249,0.8355175,0.1922378,24.82515,-31.50695,9.525368,1001.491
20.859775543,0.9273012,13.88403,0.5342574,-0.0584354,0.7646835,0.01813383,24.82515,-31.50695,9.525368,1001.491
20.879959583,0.9273012,11.31398,3.097653,-0.1541663,1.178858,0.1782865,24.82515,-31.50695,9.525368,1001.489
20.900143146,-2.259012,11.61282,1.876988,-0.02584459,1.056148,0.2360063,24.50447,-31.13808,9.900405,1001.489
20.920326710,-0.9109564,10.41745,2.85352,0.06624966,1.019818,0.1772483,24.50447,-31.13808,9.900405,1001.491
20.940510750,-0.05310292,5.337102,2.67042,0.003539664,1.021101,0.1496303,24.51253,-31.50894,10.33966,1001.491
20.960694313,4.17489,8.086465,2.121121,0.1371414,0.6711722,-0.275956,24.51253,-31.50894,10.33966,1001.491
20.980877876,-1.76881,8.923227,1.938021,0.1241474,0.8200943,0.1269847,24.51253,-31.50894,10.33966,1001.491
20.998538494,-4.281096,11.01513,1.022523,0.01828432,1.033507,0.3863353,24.50283,-31.13963,10.33954,1001.493
21.018722057,0.1307229,14.9001,2.548354,-0.1093594,1.065966,0.04947392,24.50283,-31.13963,10.33954,1001.493
21.038905621,5.46167,14.06334,0.4121909,0.0629949,1.091598,0.06773192,24.13135,-31.13858,10.33806,1001.495
21.059089184,3.255761,14.84033,0.9004567,-0.001302752,1.024214,0.07281829,24.13135,-31.13858,10.33806,1001.495
21.079273224,1.601329,15.97594,1.449756,-0.02067582,0.9493358,0.167709,24.13135,-31.13858,10.33806,1001.495
21.099456310,-3.178141,20.93675,2.85352,0.02699368,0.911297,0.4101795,24.52059,-31.8798,10.77892,1001.495
21.119640350,-0.4820297,20.33906,1.205623,-0.0608751,0.4460903,0.1378579,24.52059,-31.8798,10.77892,1001.495
21.139824390,5.46167,22.5505,4.440383,0.1130822,0.9400557,-0.01562767,24.12971,-31.14012,10.77719,1001.496
21.160007477,2.397907,24.76195,3.280752,0.1585445,0.8442945,0.2787417,24.12971,-31.14012,10.77719,1001.496
21.180191517,-0.3594792,25.89755,2.304221,0.07310832,0.5317212,0.2537039,24.12971,-31.14012,10.77719,1001.496
21.200374603,6.503349,25.2401,5.538981,-0.06311079,0.874364,-0.1042548,23.75682,-31.1404,11.15211,1001.496
21.220558643,0.9273012,24.88148,5.172782,-0.02045689,0.8532382,0.08649308,23.75682,-31.1404,11.15211,1001.499
21.240741730,0.4370991,22.72981,0.5342574,-0.01591655,1.110536,0.3363318,22.6521,-31.50656,11.1478,1001.499
21.260925770,-3.913444,21.17582,4.013151,0.05974246,0.6442962,0.02190334,22.6521,-31.50656,11.1478,1001.5
21.278586388,-5.812977,24.88148,3.952117,0.2672636,0.7545316,-0.03460998,22.6521,-31.50656,11.1478,1001.5
21.298769474,0.3145486,24.34356,2.243188,0.131386,1.097182,0.1932814,22.27898,-31.50705,11.58545,1001.499
21.318953514,0.9273012,20.99652,4.257284,-0.157145,1.225949,0.1646253,22.27898,-31.50705,11.58545,1001.499
21.339137554,-2.259012,17.88854,2.792487,-0.1062626,0.8932169,-0.1154964,22.66016,-31.87742,11.58706,1001.497
21.359320641,5.032743,14.78057,-1.296739,-0.0544208,1.144103,0.3141831,22.66016,-31.87742,11.58706,1001.497
21.379504681,5.58422,15.25872,3.402819,0.240699,0.8328665,0.1859434,21.90586,-31.50755,12.0231,1001.497
21.399688244,2.581733,19.80114,0.717357,0.08921786,0.9996688,-0.05285315,21.90586,-31.50755,12.0231,1001.497
21.419871807,0.4370991,22.07235,-1.235706,0.1454008,0.8213908,-0.06960185,21.90586,-31.50755,12.0231,1001.497
21.440055370,-5.38405,18.30692,-0.5643406,0.1062811,0.8662347,-0.1061241,22.28704,-31.87791,12.02471,1001.497
21.460238934,-8.87674,16.75293,1.205623,-0.05139756,0.942108,-0.07762869,22.28704,-31.87791,12.02471,1001.495
21.480422497,-1.952636,22.43097,2.731453,-0.120282,1.128979,0.1772496,21.91392,-31.87841,12.46236,1001.495
21.500606537,4.29744,25.12056,3.158686,-0.05315068,1.161522,0.1719561,21.91392,-31.87841,12.46236,1001.495
21.520789623,8.157781,21.29536,2.731453,-0.0354807,0.9020007,-0.06482141,21.91392,-31.87841,12.46236,1001.495
21.540973663,3.255761,20.75744,1.632855,-0.0929492,1.028722,-0.1279183,21.23288,-31.87648,12.45965,1001.497
21.558634281,-1.156057,20.99652,2.609387,-0.02998805,1.044219,0.01583911,21.23288,-31.87648,12.45965,1001.497
21.578818321,-4.648747,21.47466,6.332413,-0.06221436,0.9180961,-0.0177513,21.5491,-32.24954,13.27654,1001.497
21.599001408,-1.584984,22.3712,4.867616,0.07981831,1.135705,0.09144974,21.5491,-32.24954,13.27654,1001.497
21.619185448,2.643008,20.33906,4.013151,0.07507973,0.9317214,-0.01379048,21.5491,-32.24954,13.27654,1001.495
21.639368534,3.868513,17.94831,0.7783902,0.0572575,1.009514,-0.01855031,20.85029,-31.50744,12.83444,1001.495
21.659552574,1.172402,17.11155,2.243188,0.08192042,1.045551,-0.09767351,20.85029,-31.50744,12.83444,1001.495
21.679735660,-2.381563,18.06785,2.426287,0.04717808,1.046142,-0.06257658,20.85835,-31.8783,13.2737,1001.495
21.699919701,-3.913444,18.18738,2.426287,0.03233445,0.9569264,-0.02977284,20.85835,-31.8783,13.2737,1001.495
21.720102787,-1.64626,17.47016,2.182154,-0.04753711,0.9791183,0.05593629,20.85835,-31.8783,13.2737,1001.495
21.740286827,3.500862,13.10704,2.426287,-0.02895141,0.9989195,-0.007441953,20.48688,-31.87725,13.27222,1001.493
21.760470390,4.052339,8.743921,1.754922,-0.02354661,1.031422,-0.05205918,20.48688,-31.87725,13.27222,1001.493
21.780653954,1.601329,6.950858,1.571822,0.007697707,1.000406,-0.05369206,20.48688,-31.87725,13.27222,1001.491
21.800837994,-0.7271307,5.695714,1.754922,0.006049417,1.016684,-0.03633695,20.48688,-31.87725,13.27222,1001.491
21.821021080,-1.523709,5.038258,1.327689,0.04366393,1.016323,0.0073935,19.75363,-32.24446,13.26939,1001.491
21.838681698,0.2532734,3.48427,1.083556,0.0593036,0.9988695,0.03184103,19.75363,-32.24446,13.26939,1001.491
21.858865738,0.4370991,1.033751,0.168058,0.03575299,0.9924154,0.01228439,19.75363,-32.24446,13.26939,1001.49
