Time (s),Gyroscope X (deg/s),Gyroscope Y (deg/s),Gyroscope Z (deg/s),Accelerometer X (g),Accelerometer Y (g),Accelerometer Z (g),Magnetometer X (uT),Magnetometer Y (uT),Magnetometer Z (uT),Barometer (hPa)
0.000000000,-0.1366584,-0.04635842,0.1031367,0.01065994,0.9906288,0.1548558,25.17445,-25.60003,-25.16645,1001.478
0.020184040,-0.07538315,-0.1061272,-0.0189297,0.01550014,0.9892713,0.1523889,25.17445,-25.60003,-25.16645,1001.478
0.040368080,0.1697179,0.0731791,-0.0189297,0.01506452,0.9853604,0.1552316,25.541,-25.60572,-23.84758,1001.478
0.060551167,0.04716736,-0.04635842,0.04210352,0.01167223,0.9868407,0.1474805,25.541,-25.60572,-23.84758,1001.478
0.080735207,0.04716736,-0.2256647,-0.2020294,0.01315884,0.983375,0.1571415,25.54264,-25.60417,-24.28671,1001.478
0.100919247,0.04716736,0.0731791,-0.07996292,0.01318865,0.9809919,0.1532016,25.54264,-25.60417,-24.28671,1001.48
0.121102810,0.1697179,-0.04635842,-0.2020294,0.02089206,0.9820317,0.1575901,25.54264,-25.60417,-24.28671,1001.48
0.138763428,-0.0141079,0.0731791,-0.1409961,0.02282238,0.9821762,0.1459121,25.1631,-25.23226,-24.72745,1001.48
0.158947468,-0.1366584,-0.04635842,-0.3240958,0.01401347,0.992732,0.1432144,25.1631,-25.23226,-24.72745,1001.48
0.179131031,-0.07538315,-0.04635842,-0.07996292,0.008303083,0.9863545,0.14261,25.16146,-25.23381,-24.28832,1001.48
0.199314594,-0.2592089,-0.1658959,-0.0189297,0.01264204,0.9863271,0.1518482,25.16146,-25.23381,-24.28832,1001.48
0.219498634,-0.1366584,-0.1658959,-0.1409961,0.01362288,0.984787,0.1620346,25.16146,-25.23381,-24.28832,1001.48
0.239682198,0.1084426,-0.1658959,-0.07996292,0.01516383,0.9770878,0.1589605,24.80133,-25.60052,-24.7288,1001.481
0.280049801,0.2309931,-0.4049709,-0.07996292,0.01165956,0.9877321,0.1552836,25.52323,-24.86554,-24.28697,1001.483
0.300232887,0.1697179,-0.2854334,-0.1409961,0.01751756,0.9820733,0.1483508,25.52323,-24.86554,-24.28697,1001.483
0.320416927,0.2922684,-0.2256647,-0.07996292,0.01023734,0.9858553,0.1469765,25.52323,-24.86554,-24.28697,1001.483
0.340600967,0.1084426,-0.04635842,-0.0189297,0.002445486,0.992047,0.1461373,24.78998,-25.23276,-24.2898,1001.483
0.360785008,-0.0141079,0.3720229,0.2862364,-0.01350976,0.995153,0.1510881,24.78998,-25.23276,-24.2898,1001.483
0.380968094,0.1084426,0.0731791,0.469336,-0.02495584,0.9841856,0.1649989,25.52323,-24.86554,-24.28697,1001.483
0.401152134,0.4148189,0.01341034,0.7134689,-0.02252209,0.9822115,0.172255,25.52323,-24.86554,-24.28697,1001.485
0.418812752,0.4148189,0.5513291,0.8965686,0.02912571,0.9792907,0.1531445,25.52323,-24.86554,-24.28697,1001.485
0.438996792,0.5373694,0.7904041,0.8355353,0.04988798,0.9779024,0.1287572,24.78834,-25.2343,-23.85067,1001.485
0.459180832,0.1084426,1.089248,0.4083028,0.05162536,0.9940933,0.1110714,24.78834,-25.2343,-23.85067,1001.485
0.479363918,-0.3817594,0.3720229,0.04210352,0.03471588,0.9960908,0.1286529,24.80939,-25.97139,-24.28954,1001.485
0.499547958,-0.4430347,-0.5245085,-0.2020294,0.0285491,0.9869946,0.1571905,24.80939,-25.97139,-24.28954,1001.485
0.519731522,-0.0141079,-0.5842772,-0.2020294,0.0175025,0.9827669,0.1761,24.80939,-25.97139,-24.28954,1001.485
0.539915085,-0.0141079,-0.1658959,-0.2630626,-0.005161357,0.9825078,0.1683427,25.541,-25.60572,-23.84758,1001.485
0.560099125,0.1697179,0.2524854,0.16417,-0.02013847,0.9848186,0.1572189,25.541,-25.60572,-23.84758,1001.485
0.580282688,0.2922684,0.1329478,0.16417,0.001075447,0.9857579,0.1430954,25.17281,-25.60158,-24.72732,1001.485
0.600466252,0.04716736,-0.04635842,0.2252032,0.02897515,0.9920528,0.1363668,25.17281,-25.60158,-24.72732,1001.485
0.620650292,-0.1979337,0.3122541,0.16417,0.03530806,0.9867649,0.1416053,24.49819,-25.97205,-23.85164,1001.485
0.640833855,-0.2592089,-0.1061272,-0.07996292,0.02903174,0.9870356,0.1537845,24.49819,-25.97205,-23.85164,1001.485
0.661017895,-0.07538315,-0.4049709,-0.2020294,0.01457002,0.9862785,0.1596298,24.49819,-25.97205,-23.85164,1001.485
0.681200981,-0.07538315,-0.2256647,0.04210352,0.004960821,0.9832437,0.1581241,25.90277,-25.23745,-23.84623,1001.485
0.698861599,-0.0141079,0.2524854,0.04210352,-0.002266228,0.9826955,0.1537446,25.90277,-25.23745,-23.84623,1001.485
0.719045639,0.04716736,0.0731791,0.04210352,0.001521994,0.9886326,0.1470443,25.17117,-25.60312,-24.28819,1001.485
0.739229679,0.04716736,0.0731791,0.1031367,0.01745875,0.9869072,0.1494197,25.17117,-25.60312,-24.28819,1001.485
0.759413719,0.04716736,-0.1061272,-0.07996292,0.03243705,0.9846928,0.1508136,25.17117,-25.60312,-24.28819,1001.483
0.779596806,-0.1366584,-0.1658959,-0.1409961,0.02569733,0.9836046,0.1527483,25.17117,-25.60312,-24.28819,1001.483
0.799780846,-0.0141079,-0.04635842,-0.07996292,0.01220653,0.9824259,0.153718,25.17117,-25.60312,-24.28819,1001.485
0.819964886,0.1084426,-0.1061272,-0.0189297,0.002003347,0.9885674,0.1543411,25.17117,-25.60312,-24.28819,1001.485
0.840147972,0.1697179,-0.5245085,-0.2020294,-0.02925023,0.9801401,0.17563,25.17117,-25.60312,-24.28819,1001.485
0.860332012,1.272672,-2.198034,0.3472696,-0.2723691,1.021596,0.2244929,25.17117,-25.60312,-24.28819,1001.485
0.880516052,3.601132,-6.441615,1.140701,-0.2815087,1.136461,0.3542653,24.77863,-24.86499,-23.85079,1001.477
0.900699139,2.682003,-4.588784,1.018635,-0.03946908,0.9076335,0.1917271,24.77863,-24.86499,-23.85079,1001.477
0.920883179,3.049655,0.3720229,3.398931,0.2668587,1.022926,0.1638775,25.18251,-25.97089,-24.72719,1001.481
0.941067219,-0.0141079,0.2524854,0.9576018,0.3040492,1.018643,0.1627649,25.18251,-25.97089,-24.72719,1001.481
0.958727837,0.04716736,4.256992,0.5914025,0.3321154,0.8916524,0.1602104,25.18251,-25.97089,-24.72719,1001.481
0.978911400,0.04716736,4.376529,-0.9954612,0.1001477,1.010725,0.06996948,25.15981,-25.23535,-23.84919,1001.481
1.019279003,0.1084426,3.778842,0.2252032,0.1870174,0.9673579,0.02908355,24.78834,-25.2343,-23.85067,1001.483
1.039462566,1.088847,3.599535,-0.7513283,-0.005640639,0.9856529,-0.002872873,24.78834,-25.2343,-23.85067,1001.481
1.059646606,-0.6881357,0.9697104,-0.3240958,-0.07624454,0.9992334,0.08557175,24.78834,-25.2343,-23.85067,1001.481
1.079829693,-0.6881357,-1.779652,-0.6902951,-0.1168249,0.9626368,0.1973085,24.49013,-25.6012,-24.2909,1001.477
1.100013733,-0.8106862,-4.648553,-0.6902951,-0.133614,0.9532593,0.2871661,24.49013,-25.6012,-24.2909,1001.477
1.120197773,-0.3204842,-7.218609,-2.460258,-0.01530643,0.9421717,0.2629303,25.54264,-25.60417,-24.28671,1001.477
1.140380859,0.2922684,-6.441615,-1.605793,0.04021043,1.017589,0.2653146,25.54264,-25.60417,-24.28671,1001.477
1.160564899,0.9662962,-3.991096,-0.5682287,0.033079,0.9707568,0.1889772,25.54264,-25.60417,-24.28671,1001.477
1.180748940,-0.7494109,-3.692253,-0.4461623,0.03655895,1.004535,0.06166834,25.54264,-25.60417,-24.28671,1001.477
1.200932026,-1.423439,-4.827859,-0.934428,0.1034144,0.9805489,0.03968566,25.54264,-25.60417,-24.28671,1001.477
1.221116066,0.4148189,-4.349709,-1.178561,0.09883586,0.9985826,0.1198495,24.48042,-25.23188,-24.29103,1001.477
1.238776684,0.04716736,-4.588784,-1.483727,0.06372304,0.9899822,0.1528187,24.48042,-25.23188,-24.29103,1001.477
1.258960724,0.2309931,-3.752021,-1.910959,0.04160612,0.9834449,0.1926219,24.49013,-25.6012,-24.2909,1001.477
1.279144764,0.6599199,-3.034796,-1.54476,-0.01234329,0.9769632,0.2280937,24.49013,-25.6012,-24.2909,1001.477
1.299327850,-0.3817594,-5.485315,-1.36166,-0.08480015,0.9880676,0.1238037,24.49013,-25.6012,-24.2909,1001.471
1.319511890,-0.8719615,-9.310515,-1.788893,-0.03317879,0.983932,0.2759477,25.54264,-25.60417,-24.28671,1001.471
1.339695931,0.4148189,-10.14728,-1.910959,-0.01277582,0.9733081,0.2051524,25.54264,-25.60417,-24.28671,1001.469
1.359879494,-0.5043099,-12.95641,-1.178561,-0.04511017,0.9756124,0.1687515,24.47236,-24.86102,-24.73029,1001.469
1.380063057,-0.2592089,-14.15178,-1.422694,0.01024148,0.9446123,0.2016312,24.47236,-24.86102,-24.73029,1001.469
1.400247097,0.4148189,-14.39086,-1.300627,0.03529741,0.9462397,0.2215766,24.47236,-24.86102,-24.73029,1001.469
1.420430660,1.456498,-12.00011,-1.056494,0.09971505,0.9615972,0.3327278,24.79163,-25.23121,-24.72893,1001.469
1.440614224,1.517774,-10.92427,-1.239594,0.1275148,0.9761163,0.3271353,24.79163,-25.23121,-24.72893,1001.469
1.460797787,1.762874,-9.310515,-1.910959,0.06167036,0.9575287,0.2952359,24.48371,-25.22879,-25.16929,1001.468
1.480981827,1.395223,-9.489821,-1.300627,-0.03304688,1.090504,0.3763472,24.48371,-25.22879,-25.16929,1001.468
1.501165390,1.517774,-10.38635,-1.483727,-0.05549248,1.034708,0.252656,24.48371,-25.22879,-25.16929,1001.468
1.518826485,-2.403843,-12.47826,-1.666827,-0.04361798,0.9696993,0.2786008,24.48371,-25.22879,-25.16929,1001.468
1.539009571,-1.66854,-13.79317,-1.300627,-0.006321876,1.077573,0.2057467,24.48371,-25.22879,-25.16929,1001.468
1.559193611,0.1697179,-14.5104,-0.9954612,0.02180419,0.9874158,0.1046574,24.13305,-25.96505,-25.54691,1001.468
1.579377651,-1.362164,-15.70577,-1.666827,-0.0427164,0.8195057,0.08342521,24.13305,-25.96505,-25.54691,1001.466
1.599560738,-3.261696,-17.43907,-1.056494,0.003792958,0.9210573,0.1242937,24.13305,-25.96505,-25.54691,1001.466
1.619744778,-3.629348,-18.57467,-1.483727,0.03410278,1.006595,0.1434593,24.48676,-25.22592,-25.98482,1001.466
1.639928818,-0.1366584,-17.61837,-3.680923,0.1710814,0.9285323,0.06045324,24.48676,-25.22592,-25.98482,1001.466
1.660112858,1.82415,-15.16785,-2.948524,0.0373206,0.8621652,0.05447023,23.72276,-24.48674,-25.5489,1001.47
1.680295944,2.375627,-11.58173,-2.216125,0.00867169,0.9953905,0.1603054,23.72276,-24.48674,-25.5489,1001.47
1.700479984,-0.9332367,-12.00011,-1.605793,-0.05887685,0.9179047,0.1530319,23.75187,-25.59468,-25.54852,1001.47
1.720664025,-1.66854,-12.53803,-2.216125,-0.01400545,0.9969417,0.1165766,23.75187,-25.59468,-25.54852,1001.47
1.740847111,0.1084426,-11.6415,-0.9954612,0.01631501,1.042744,0.08727019,23.75187,-25.59468,-25.54852,1001.47
1.761031151,1.517774,-10.56566,-1.422694,0.008661377,0.8794789,0.02468658,24.12335,-25.59573,-25.54704,1001.47
1.781215191,-0.6268604,-11.40242,-1.422694,-0.04698478,1.050639,0.1736452,24.12335,-25.59573,-25.54704,1001.472
1.798875809,-1.852365,-11.16335,-1.54476,-0.00467862,1.023172,0.1238942,23.37233,-25.22277,-25.98925,1001.472
1.819059372,-1.423439,-11.28288,-1.056494,0.02964375,0.9377653,0.0905254,23.37233,-25.22277,-25.98925,1001.472
1.839242935,0.9662962,-9.310515,-0.4461623,0.01865395,1.047475,0.1511032,23.37233,-25.22277,-25.98925,1001.472
1.859426499,1.762874,-7.935834,-0.9954612,0.02315574,0.8771173,0.04018934,23.01385,-25.58794,-26.86886,1001.472
1.879610539,-0.1366584,-9.250747,-1.422694,0.01361701,0.9852713,0.1620442,23.01385,-25.58794,-26.86886,1001.472
1.899794102,-1.239613,-9.250747,-1.300627,0.01426114,1.011161,0.1907777,23.01056,-25.59103,-25.9906,1001.472
1.919977665,1.640324,-7.457684,-1.178561,0.05199789,1.003453,0.09617192,23.01056,-25.59103,-25.9906,1001.472
1.940161705,1.150122,-6.381846,-0.7513283,0.01494284,0.9173407,0.07603172,23.01056,-25.59103,-25.9906,1001.473
1.960345745,-0.3817594,-5.784159,-0.9954612,0.02072929,0.9560772,0.1361535,22.99444,-24.84931,-26.86912,1001.473
1.980528831,-0.8719615,-6.381846,-0.6902951,-0.02540915,1.022337,0.1282874,22.99444,-24.84931,-26.86912,1001.476
2.000712872,-0.8719615,-7.517453,-1.056494,-0.005698164,0.988654,0.0852588,22.63103,-25.21912,-26.43134,1001.476
2.020896912,-0.2592089,-10.14728,-1.36166,-0.02339368,1.015947,0.09166399,22.63103,-25.21912,-26.43134,1001.477
2.041079998,-0.6268604,-11.88057,-1.605793,0.001647322,0.9796021,0.08068959,22.63103,-25.21912,-26.43134,1001.477
2.058741570,-0.2592089,-11.76103,-1.788893,0.03966556,1.025008,0.1516009,23.02497,-25.95593,-27.24513,1001.477
2.078924656,0.7211952,-10.20705,-1.54476,0.07976239,1.019901,0.1402495,23.02497,-25.95593,-27.24513,1001.477
2.099108696,1.272672,-8.772596,-1.788893,0.06887207,1.003385,0.1282605,22.62297,-24.84826,-26.8706,1001.479
2.119292736,0.4760941,-7.935834,-1.666827,0.02580293,1.014528,0.1616322,22.62297,-24.84826,-26.8706,1001.479
2.139475822,-0.994512,-8.892135,-1.54476,-0.01387525,0.9854057,0.1562482,22.62297,-24.84826,-26.8706,1001.479
2.159659863,-1.239613,-10.08751,-1.72786,-0.04655962,1.015978,0.1515488,22.61467,-24.47763,-27.24712,1001.479
2.179843903,-1.117062,-11.52196,-1.300627,-0.01732761,1.03126,0.1688389,22.61467,-24.47763,-27.24712,1001.479
2.200026989,-1.913641,-14.6897,-1.483727,-0.0202168,0.9522716,0.1166748,22.24319,-24.47657,-27.2486,1001.479
2.220211029,-0.5655852,-13.49433,-1.788893,0.03120741,0.9648017,0.2491989,22.24319,-24.47657,-27.2486,1001.481
2.240394592,0.905021,-11.28288,-1.239594,0.08040238,0.9651873,0.2350233,22.24319,-24.47657,-27.2486,1001.481
2.260578632,1.579049,-7.935834,-0.9954612,0.08862326,1.002975,0.2479237,21.88001,-24.84616,-26.87356,1001.481
2.280762196,0.4760941,-7.63699,-0.8733948,0.02867551,0.9751449,0.2284841,21.88001,-24.84616,-26.87356,1001.481
2.300945759,-0.7494109,-7.876065,-0.8123615,-0.04051933,1.032069,0.2968612,22.2529,-24.84589,-27.24847,1001.481
2.321129799,-1.362164,-7.995602,-0.0189297,-0.0416253,0.9256578,0.2276078,22.2529,-24.84589,-27.24847,1001.481
2.338790417,-0.6881357,-7.218609,-0.5071955,-0.009724096,0.9206172,0.1972929,21.87336,-24.47398,-27.68921,1001.481
2.358974457,1.640324,-7.756527,-0.385129,-0.04678155,0.9948282,0.1341,21.87336,-24.47398,-27.68921,1001.483
2.379157543,2.375627,-9.190978,-0.6292619,-0.03068662,0.8620331,0.06381259,21.87336,-24.47398,-27.68921,1001.483
2.399341583,-0.07538315,-11.04381,-0.3240958,-0.04364402,1.01301,0.2108493,21.87336,-24.47398,-27.68921,1001.488
2.419525623,-1.79109,-12.53803,-0.5071955,0.02455854,0.9982657,0.1384426,21.87336,-24.47398,-27.68921,1001.488
2.439708710,-2.894045,-11.58173,-0.5071955,0.08890276,0.9031601,0.1019182,21.57351,-24.84242,-27.69032,1001.488
2.459892750,-1.484714,-9.489821,-0.2630626,0.09473425,0.9775092,0.1865874,21.57351,-24.84242,-27.69032,1001.488
2.480076790,1.701599,-6.740459,-0.8733948,0.03538549,0.981532,0.0831112,21.57351,-24.84242,-27.69032,1001.488
2.500259876,-0.9332367,-5.365777,-1.36166,0.01340195,1.003366,0.1448855,21.19232,-24.47205,-27.69192,1001.488
2.520443916,-1.423439,-6.083003,-0.4461623,0.01706755,1.019528,0.1330353,21.19232,-24.47205,-27.69192,1001.488
2.540627957,-0.994512,-5.485315,-1.72786,0.03890634,1.086349,0.2189919,21.56544,-24.47156,-28.12957,1001.488
2.560811997,-1.545989,-3.512946,-1.36166,0.0292705,0.927376,0.1603888,21.56544,-24.47156,-28.12957,1001.488
2.580995083,1.150122,-0.9428898,-0.385129,0.02722287,0.8982486,0.1140762,21.56544,-24.47156,-28.12957,1001.488
2.618839741,1.027571,1.806473,-0.2020294,-0.001593911,1.047652,0.1029644,21.19397,-24.47051,-28.13105,1001.487
2.639023304,-2.342568,-1.122196,-0.0189297,-0.04264687,0.972203,0.1253742,21.88307,-24.84329,-27.68908,1001.487
2.659207344,-5.222505,-1.540577,-0.2630626,0.02678466,0.9327999,0.1960206,21.88307,-24.84329,-27.68908,1001.487
2.679390907,-0.9332367,0.4915604,-0.07996292,0.07895327,1.085842,0.1834022,21.88307,-24.84329,-27.68908,1001.488
2.699574471,3.907508,2.105317,-0.385129,0.0530011,1.117852,0.1903995,21.20367,-24.83982,-28.13092,1001.488
2.719758511,2.559453,-0.1658959,-0.2020294,-0.01012819,0.9937565,0.1992276,21.20367,-24.83982,-28.13092,1001.488
2.739942074,-0.8719615,-1.122196,-0.934428,-0.03023119,0.9816707,0.1664166,21.88307,-24.84329,-27.68908,1001.488
2.760125637,1.762874,-2.078496,0.16417,0.04173627,1.015429,0.04581898,21.88307,-24.84329,-27.68908,1001.488
2.780309677,1.9467,-0.4647397,-0.934428,0.06768554,0.8245961,0.0283796,21.88307,-24.84329,-27.68908,1001.488
2.800492764,-0.07538315,-0.3452022,-0.385129,0.006075608,0.9685377,0.2746122,21.55574,-24.10225,-28.1297,1001.49
2.820676804,-2.587669,-0.883121,-0.934428,-0.006014295,0.9713517,0.2659271,21.55574,-24.10225,-28.1297,1001.49
2.840860844,-1.607265,-1.660115,-0.5682287,-0.02379136,0.9281238,0.1522095,21.19397,-24.47051,-28.13105,1001.49
2.861044884,-0.3817594,0.1927166,0.8355353,0.05524325,0.9744201,0.09705231,21.19397,-24.47051,-28.13105,1001.49
2.881227970,-2.403843,4.197223,0.7134689,0.06873302,1.01322,0.2111751,21.56709,-24.47001,-28.5687,1001.49
2.898888588,-2.158742,2.822542,0.5914025,0.001899438,1.034166,0.2953807,21.56709,-24.47001,-28.5687,1001.49
2.919072628,1.395223,2.40416,-0.6292619,0.0372703,1.024347,0.1170437,21.56709,-24.47001,-28.5687,1001.49
2.939256668,1.211397,0.6708667,-1.483727,0.03924672,1.215866,0.3023281,21.5865,-25.20864,-28.56845,1001.49
2.959440708,-0.994512,-1.062427,-0.4461623,-0.01371864,0.8542056,0.09672067,21.5865,-25.20864,-28.56845,1001.492
2.979623795,-3.568073,-0.5245085,-0.6292619,0.0005362574,0.9095067,0.2092226,21.57351,-24.84242,-27.69032,1001.492
2.999807835,-2.587669,1.627167,1.201735,0.0004181117,0.919131,0.2157389,21.57351,-24.84242,-27.69032,1001.492
3.019991398,0.7824704,3.838611,-0.3240958,0.01803901,0.9785357,0.1638508,21.57351,-24.84242,-27.69032,1001.492
3.040174961,1.395223,1.686935,-0.4461623,0.01832981,0.9154212,0.1280535,21.20367,-24.83982,-28.13092,1001.492
3.060359001,-2.465118,3.001848,0.7134689,0.02914722,1.132865,0.3508186,21.20367,-24.83982,-28.13092,1001.492
3.080542564,-0.0141079,4.974217,1.201735,0.02667565,1.022471,0.1437844,21.20532,-24.83828,-28.57005,1001.492
3.100726128,1.088847,4.555836,1.384834,-0.05063316,1.033962,0.139746,21.20532,-24.83828,-28.57005,1001.492
3.120910168,0.3535436,4.675373,0.6524357,-0.02181407,0.8857188,0.08275864,21.20532,-24.83828,-28.57005,1001.494
3.141093731,-3.568073,5.751211,1.69,-0.05995828,0.9672579,0.1583896,21.88307,-24.84329,-27.68908,1001.494
3.158754349,-1.545989,6.229361,1.201735,-0.03392083,0.850402,0.05920786,21.88307,-24.84329,-27.68908,1001.494
3.178938389,2.620728,7.24543,0.9576018,0.0713274,0.8803786,0.1253359,22.61796,-24.47454,-28.12539,1001.494
3.199121475,7.706574,5.033986,1.812067,0.03342302,1.061899,0.1844549,22.61796,-24.47454,-28.12539,1001.496
3.219305515,0.2922684,5.631673,0.2252032,0.06197777,0.9731397,0.2361809,22.61796,-24.47454,-28.12539,1001.496
3.239489555,-4.977404,6.647742,1.201735,0.1080159,1.034006,0.2747851,22.24648,-24.47348,-28.12686,1001.496
3.259673595,-1.362164,7.783349,1.69,0.0497296,1.029664,0.1857394,22.24648,-24.47348,-28.12686,1001.496
3.279856682,0.5373694,11.1304,0.5303693,0.07993812,0.8873737,0.06804442,22.22543,-23.7364,-27.68799,1001.497
3.300040722,2.498178,12.56485,0.2252032,0.04322287,1.090285,0.1217461,22.22543,-23.7364,-27.68799,1001.497
3.320224762,1.088847,13.46138,0.7745022,-0.0620458,1.138879,0.1943906,22.22543,-23.7364,-27.68799,1001.499
3.340407848,-1.545989,14.41768,1.812067,-0.01698521,0.9617463,0.2409372,21.87665,-24.47089,-28.56747,1001.499
3.360591889,-0.2592089,15.25444,3.215831,-0.1018981,0.9271849,0.08126394,21.87665,-24.47089,-28.56747,1001.503
3.380775929,-0.3817594,15.9119,3.887196,-0.09761557,0.9708691,0.1288345,22.2529,-24.84589,-27.24847,1001.503
3.400959015,1.211397,15.01537,4.741661,-0.01623536,0.9421864,0.1135498,22.2529,-24.84589,-27.24847,1001.505
3.421143055,0.6599199,13.28207,1.567934,0.1529876,1.104857,0.2333017,22.23513,-24.10572,-27.68786,1001.505
3.438803673,1.150122,9.994792,2.361366,0.1155199,0.8958524,0.09686861,22.23513,-24.10572,-27.68786,1001.505
3.458987713,1.762874,10.65225,3.459964,0.05987907,0.8721339,0.01132819,22.23513,-24.10572,-27.68786,1001.503
3.479171276,2.682003,8.739649,1.567934,0.09886284,1.114903,0.1654578,22.63408,-25.21626,-27.24687,1001.503
3.499354839,-1.239613,8.620111,-0.1409961,0.08705574,0.9756199,0.1213587,22.63408,-25.21626,-27.24687,1001.503
3.519538880,-2.771494,6.886817,-0.9954612,0.03650573,0.9682468,0.1052296,22.97644,-24.10936,-27.24577,1001.503
3.539722443,-2.648944,7.843118,-0.6902951,0.0005389827,0.9503474,0.146288,22.97644,-24.10936,-27.24577,1001.504
3.559906483,-1.484714,9.038492,0.7745022,0.03465206,1.040156,0.1801301,22.97644,-24.10936,-27.24577,1001.504
3.580089569,1.762874,8.620111,0.2862364,0.002263623,1.008039,0.09682227,22.99421,-24.84953,-26.80639,1001.504
3.600273609,2.927104,8.321267,-0.385129,0.01016025,0.875088,0.02994994,22.99421,-24.84953,-26.80639,1001.504
3.620457649,1.82415,5.631673,0.3472696,-0.01401761,0.95823,0.1114312,23.34627,-24.11196,-26.80517,1001.504
3.640640736,-1.66854,6.468436,0.5303693,0.02207745,0.9654059,0.07697253,23.34627,-24.11196,-26.80517,1001.504
3.660824776,-5.038679,6.707511,0.8965686,-0.0239006,0.9375148,0.1334187,23.34627,-24.11196,-26.80517,1001.504
3.681008816,-3.568073,5.751211,0.469336,0.0134514,1.07802,0.1901558,23.3465,-24.11174,-26.8679,1001.504
3.718853474,3.539857,7.843118,1.140701,0.09014326,1.000332,0.07707725,22.99585,-24.84799,-27.24552,1001.504
3.739036560,3.294756,8.799417,1.812067,-0.02356083,1.107598,0.1815504,22.99585,-24.84799,-27.24552,1001.506
3.759220600,2.007976,7.305198,0.04210352,-0.06502755,0.9874905,0.1626902,22.99585,-24.84799,-27.24552,1001.506
3.779404640,-0.7494109,2.703004,0.2862364,-0.00569764,0.8687903,0.1038098,23.72769,-24.4821,-26.86629,1001.506
3.799588204,-2.220017,2.822542,0.4083028,0.04840181,0.9804347,0.1643303,23.72769,-24.4821,-26.86629,1001.506
3.819771767,1.9467,3.181154,0.3472696,0.03035601,1.076589,0.1643135,23.71798,-24.11279,-26.86642,1001.506
3.839955807,3.049655,3.659304,0.6524357,0.05233497,0.9354386,0.1147754,23.71798,-24.11279,-26.86642,1001.506
3.860139370,1.640324,4.077685,-0.07996292,0.06030634,0.9933225,0.1528899,23.71798,-24.11279,-26.86642,1001.506
3.880322933,-0.2592089,2.463929,-0.4461623,0.01603548,1.063265,0.2161356,24.09587,-24.48624,-25.98655,1001.506
3.900506973,-3.568073,2.224854,0.3472696,0.01233178,0.8921582,0.1684752,24.09587,-24.48624,-25.98655,1001.506
3.920690537,-2.465118,3.121386,0.5303693,0.0008411138,1.004199,0.1887132,22.98779,-24.47713,-27.68478,1001.506
3.940874100,1.211397,3.659304,0.3472696,-0.008376966,0.8911842,0.08917271,22.98779,-24.47713,-27.68478,1001.506
3.961057663,1.640324,3.599535,0.6524357,-0.02371978,0.9630219,0.1022951,22.98779,-24.47713,-27.68478,1001.506
3.978718281,0.7211952,2.045548,0.3472696,0.03895541,1.004326,0.1351353,23.3465,-24.11174,-26.8679,1001.508
3.998902321,-1.117062,-0.5842772,-0.4461623,0.04671041,1.000906,0.1496538,23.3465,-24.11174,-26.8679,1001.508
4.019086361,-2.526393,-1.002658,-0.2630626,0.02326822,0.9453462,0.1471289,23.70827,-23.74347,-26.86655,1001.51
4.039269447,-1.239613,-1.361271,-0.8123615,0.05891673,1.027969,0.1749874,23.70827,-23.74347,-26.86655,1001.51
4.059453487,2.007976,-1.361271,-1.239594,0.05880386,1.039,0.08859348,24.10887,-24.85247,-26.86468,1001.508
4.079637527,1.885425,-1.660115,-1.788893,0.01838103,0.9118988,0.09246293,24.10887,-24.85247,-26.86468,1001.508
4.099821568,-0.0141079,-0.8233522,-0.4461623,0.008768267,1.026538,0.1954693,24.10887,-24.85247,-26.86468,1001.51
4.120004654,-0.8106862,-0.2256647,-0.4461623,-0.01332511,1.020007,0.1369821,23.71939,-24.11146,-27.24282,1001.51
4.140188694,-2.894045,-0.7038147,-0.6902951,-0.002356204,0.9501548,0.1613726,23.71939,-24.11146,-27.24282,1001.508
4.160372734,-1.300888,-0.2256647,-0.0189297,-0.001061736,1.081738,0.1844116,23.35621,-24.48105,-26.86777,1001.508
4.180555821,1.885425,3.360461,0.2252032,0.01917506,1.005233,0.1118261,23.35621,-24.48105,-26.86777,1001.508
4.200739861,1.640324,3.778842,0.9576018,-0.04576992,1.029662,0.1897722,23.35621,-24.48105,-26.86777,1001.508
4.220923901,-0.3204842,3.061617,0.8355353,-0.0007798442,1.018857,0.1739216,23.71798,-24.11279,-26.86642,1001.508
4.241106987,-0.6268604,1.567398,0.5303693,-0.008373724,0.8904827,0.1110552,23.71798,-24.11279,-26.86642,1001.508
4.258768082,-1.66854,1.268554,1.262768,0.02407286,0.958327,0.1585761,23.35457,-24.48259,-26.42864,1001.508
4.278951645,2.007976,2.942079,1.262768,0.02625652,0.9386935,0.08957556,23.35457,-24.48259,-26.42864,1001.508
4.299135685,1.640324,4.256992,0.5303693,0.07949962,1.039869,0.2272575,23.35457,-24.48259,-26.42864,1001.507
4.319319248,3.662407,4.197223,0.2252032,0.07264853,1.048965,0.1792755,24.09916,-24.48315,-26.86481,1001.507
4.339502812,2.069251,4.017917,-0.1409961,0.006009084,0.8567052,0.1672962,24.09916,-24.48315,-26.86481,1001.507
4.359686375,-2.403843,4.735142,0.9576018,-0.0169456,0.9185885,0.2444622,23.72604,-24.48365,-26.42716,1001.507
4.379870415,-2.036191,5.631673,0.5914025,-0.01369167,1.127169,0.2748612,23.72604,-24.48365,-26.42716,1001.508
4.400054455,1.82415,5.810979,0.7134689,-0.00741162,0.9309176,0.09044427,23.72604,-24.48365,-26.42716,1001.508
4.420237541,0.5373694,5.870748,1.201735,0.01662795,0.7774132,0.1170527,23.72604,-24.48365,-26.42716,1001.508
4.440421581,-1.545989,6.946586,1.8731,-0.01050605,0.9046643,0.2412577,23.72604,-24.48365,-26.42716,1001.508
4.460605621,0.5986447,6.886817,2.0562,0.005235146,1.118936,0.2050886,24.46093,-24.11489,-26.86346,1001.508
4.480788708,0.2309931,4.974217,0.469336,0.04989032,1.015803,0.2156332,24.46093,-24.11489,-26.86346,1001.508
4.500972748,1.027571,3.420229,0.9576018,0.05304163,1.073799,0.2352667,24.46093,-24.11489,-26.86346,1001.508
4.521156788,-0.8719615,4.85468,-0.5071955,0.05021839,0.9895984,0.1713213,24.77856,-24.48662,-26.42297,1001.508
4.538817406,-3.874449,5.093754,0.2252032,0.07238249,0.9506945,0.2186908,24.77856,-24.48662,-26.42297,1001.508
4.559001446,-0.5655852,4.555836,0.9576018,0.004886555,1.26432,0.3485901,24.08781,-24.11538,-26.42581,1001.51
4.579184532,0.7824704,6.707511,0.4083028,0.04416119,1.051401,0.1842314,24.08781,-24.11538,-26.42581,1001.51
4.599368572,-1.300888,7.364967,2.361366,0.01826398,0.8800291,0.1789314,24.08781,-24.11538,-26.42581,1001.512
4.619552612,-1.852365,7.424736,0.8355353,-0.08198355,0.9924295,0.2255825,24.08781,-24.11538,-26.42581,1001.512
4.639735699,-0.7494109,7.185661,1.018635,0.04103288,0.9121354,0.1513113,24.08781,-24.11538,-26.42581,1001.512
4.659919739,2.314352,7.066123,2.361366,0.05529196,1.284948,0.2983193,24.47064,-24.4842,-26.86333,1001.512
4.680103779,3.049655,6.886817,0.5303693,0.01943934,1.142034,0.1447016,24.47064,-24.4842,-26.86333,1001.506
4.700287342,-2.771494,5.691442,0.5914025,0.03092372,0.8708902,0.1422379,24.46899,-24.48575,-26.4242,1001.506
4.720470905,-4.11955,3.719073,0.8355353,0.02392253,1.04943,0.2061185,24.46899,-24.48575,-26.4242,1001.51
4.740654469,-1.300888,4.496067,1.323801,0.06382603,0.9820138,0.1258986,24.46899,-24.48575,-26.4242,1001.51
4.760838509,3.049655,1.806473,1.262768,-0.008487133,0.8221765,0.01189958,24.45929,-24.11643,-26.42433,1001.51
4.781022072,3.601132,-0.6440459,-1.36166,0.008185753,0.9960464,0.1423154,24.45929,-24.11643,-26.42433,1001.51
4.801205635,1.395223,-1.301502,-0.2630626,0.04755628,1.089799,0.177201,24.7575,-23.74954,-25.9841,1001.51
4.818866253,0.1084426,-0.1061272,-0.385129,0.02598906,0.9988891,0.1754334,24.7575,-23.74954,-25.9841,1001.51
4.839050293,-2.403843,0.7306354,-0.0189297,-0.01480292,0.94103,0.232252,24.7575,-23.74954,-25.9841,1001.51
4.859234333,-2.648944,1.029479,0.16417,-0.04331638,0.907478,0.1528028,24.07811,-23.74607,-26.42594,1001.51
4.879417420,-0.6881357,2.523698,-0.4461623,0.04484565,0.9955153,0.152956,24.07811,-23.74607,-26.42594,1001.506
4.899601460,2.007976,2.762773,1.751034,-0.05977266,0.7949324,0.04403697,24.07002,-23.4383,-26.42605,1001.506
4.919785500,1.701599,4.256992,1.201735,0.06405014,1.160957,0.2087535,24.07002,-23.4383,-26.42605,1001.504
4.939968586,1.150122,4.017917,0.7134689,0.04079695,1.012645,0.08079951,24.07002,-23.4383,-26.42605,1001.504
4.960152626,0.2309931,4.376529,1.140701,-0.03217368,0.9051067,0.06661361,25.15003,-24.48767,-26.42149,1001.504
4.980336666,-1.607265,5.392598,0.5303693,0.04042473,1.00331,0.09326655,25.15003,-24.48767,-26.42149,1001.504
5.000520706,-2.158742,4.914448,1.018635,0.01860521,1.052172,0.1171352,25.15974,-24.85699,-26.42136,1001.503
5.020703793,0.1084426,4.914448,-1.849926,0.03749473,0.9664105,0.09643325,25.15974,-24.85699,-26.42136,1001.503
5.040887833,0.5373694,5.512136,0.3472696,0.05618208,0.8978717,0.0488236,25.15974,-24.85699,-26.42136,1001.503
5.061071873,0.5373694,7.544273,0.8355353,-0.07778421,1.007039,0.0779431,24.77691,-24.48817,-25.98384,1001.503
5.078732491,0.2922684,6.587973,-0.5071955,0.02723559,1.055944,0.1405534,24.77691,-24.48817,-25.98384,1001.496
5.098916054,-0.5655852,7.364967,0.9576018,0.00972636,1.027965,0.1507302,25.12898,-23.75059,-25.98262,1001.496
5.119099617,1.395223,8.381036,1.69,-0.05064278,0.99643,0.06455544,25.12898,-23.75059,-25.98262,1001.496
5.139283180,1.640324,7.364967,0.5914025,-0.001530001,1.002625,0.09964021,25.12898,-23.75059,-25.98262,1001.496
5.159467220,-0.2592089,5.751211,0.04210352,0.06768014,1.061055,0.1741696,24.7575,-23.74954,-25.9841,1001.496
5.179650784,0.7824704,7.305198,1.018635,0.02978907,1.005801,0.07046189,24.7575,-23.74954,-25.9841,1001.496
5.199834347,-0.4430347,8.620111,1.079668,0.004144291,0.9721891,0.09902951,25.13868,-24.1199,-25.98249,1001.498
5.220018387,-2.281292,6.528204,0.8355353,-0.05494577,0.9520282,0.1381308,25.13868,-24.1199,-25.98249,1001.498
5.240201950,1.088847,5.810979,1.934133,-0.05919611,1.025099,0.09238426,25.51016,-24.12096,-25.98101,1001.496
5.260385513,2.130526,7.066123,2.0562,-0.006767587,1.036091,0.1372908,25.51016,-24.12096,-25.98101,1001.496
5.280569553,3.723683,6.528204,2.971698,-0.03445799,0.9744875,0.0538791,25.51016,-24.12096,-25.98101,1001.494
5.300753594,1.579049,6.528204,2.2393,0.003671402,0.8530473,0.04412084,25.49881,-23.75319,-25.54201,1001.494
5.320936680,-0.8719615,4.85468,1.262768,0.02230191,1.024471,0.1798378,25.49881,-23.75319,-25.54201,1001.494
5.341120720,-1.178338,4.436298,1.140701,0.05876409,1.001883,0.1180273,25.12253,-23.44128,-26.42186,1001.494
5.358781338,-1.66854,4.974217,1.506901,0.1021246,0.9653758,0.1508156,25.12253,-23.44128,-26.42186,1001.498
5.378965378,0.04716736,6.050055,0.8965686,0.07133447,0.9989309,0.1413066,25.12253,-23.44128,-26.42186,1001.498
5.399149418,0.2309931,6.707511,0.5914025,0.05241777,0.889064,0.1007196,25.12253,-23.44128,-26.42186,1001.498
5.419332504,-0.8106862,8.500573,1.018635,0.05143951,1.008785,0.1439638,25.12253,-23.44128,-26.42186,1001.498
5.439516544,1.211397,8.978724,1.751034,-0.06489813,1.018445,0.07085112,25.13704,-24.12145,-25.54336,1001.498
5.459700585,1.517774,7.125892,1.628967,-0.03067904,0.9013354,0.0582648,25.13704,-24.12145,-25.54336,1001.498
5.479883671,-0.3817594,4.675373,0.8355353,-0.007977093,0.8583111,0.08219589,25.13704,-24.12145,-25.54336,1001.494
5.500067711,-0.9332367,4.316761,0.469336,0.04830482,0.9492536,0.1325718,25.51016,-24.12096,-25.98101,1001.494
5.520251274,0.2922684,3.539767,0.8965686,0.004490114,0.9435738,0.1023554,25.51016,-24.12096,-25.98101,1001.494
5.540434837,-0.2592089,3.719073,0.7134689,0.02059317,0.9274788,0.1370474,25.87999,-24.12355,-25.5404,1001.494
5.560618878,0.7211952,1.686935,1.079668,0.005721429,1.000341,0.1453235,25.87999,-24.12355,-25.5404,1001.494
5.580802441,2.804554,1.44786,0.5914025,0.01371617,0.9798954,0.02034093,25.87999,-24.12355,-25.5404,1001.494
5.600986481,-0.8106862,3.778842,1.262768,0.06242897,0.9367538,0.1926405,25.12592,-23.75346,-25.16709,1001.496
5.621170044,-1.117062,4.316761,0.9576018,0.02444723,0.9668691,0.1772349,25.12592,-23.75346,-25.16709,1001.496
5.638830662,-0.07538315,4.077685,0.6524357,0.001414234,0.9575304,0.1561606,26.23367,-23.44753,-25.53916,1001.496
5.659014225,2.498178,3.479998,0.5303693,0.02956479,1.141101,0.205005,26.23367,-23.44753,-25.53916,1001.496
5.679198265,0.3535436,5.273061,0.4083028,0.06464565,1.071646,0.2254753,26.23367,-23.44753,-25.53916,1001.496
5.699382305,-1.484714,7.663811,1.018635,-0.01179653,0.9726096,0.1793481,25.4974,-23.75451,-25.16561,1001.492
5.719565392,-2.342568,8.082192,1.079668,-0.03108551,0.931724,0.2179807,25.4974,-23.75451,-25.16561,1001.492
5.739749432,-0.1979337,6.827048,1.8731,-0.05757039,0.8116356,0.07307293,25.87029,-23.75424,-25.54053,1001.492
5.759933472,2.559453,5.153523,1.384834,0.02491274,1.047695,0.1871058,25.87029,-23.75424,-25.54053,1001.492
5.780116558,1.088847,5.810979,1.018635,0.06834786,1.04537,0.1933217,25.86864,-23.75578,-25.1014,1001.492
5.800300598,-0.8106862,6.647742,0.7745022,0.01930008,1.032915,0.2033655,25.86864,-23.75578,-25.1014,1001.492
5.820484638,0.4148189,5.452367,0.8965686,0.0566156,1.017638,0.2360963,25.86864,-23.75578,-25.1014,1001.496
5.840667725,-0.2592089,7.305198,1.995167,0.005940548,0.8636437,0.1027176,25.85085,-23.0787,-25.10164,1001.496
5.860851765,-0.1366584,6.886817,1.567934,-0.01530253,1.022756,0.198836,25.85085,-23.0787,-25.10164,1001.495
5.881035805,2.682003,3.958148,0.5914025,-0.02610704,1.197019,0.2485265,26.23871,-23.75816,-24.72353,1001.495
5.901219368,1.395223,2.942079,-0.6292619,0.0769293,0.9745314,0.1670912,26.23871,-23.75816,-24.72353,1001.496
5.918879986,-0.07538315,3.838611,1.140701,0.03765241,0.8739769,0.08535848,26.23871,-23.75816,-24.72353,1001.496
5.939064026,-0.8719615,5.273061,0.7134689,0.02029243,0.9520649,0.1492125,25.86888,-23.75556,-25.16413,1001.495
5.959247589,1.885425,2.40416,0.469336,-0.01288681,1.102461,0.1780269,25.86888,-23.75556,-25.16413,1001.495
5.979431152,2.253077,2.165085,-0.385129,0.05069275,0.9522181,0.08153538,25.87694,-24.12642,-24.72488,1001.496
5.999615192,1.517774,3.838611,0.16417,0.07378221,0.9565297,0.1210004,25.87694,-24.12642,-24.72488,1001.496
6.019798756,0.5986447,4.79491,0.7134689,-0.001118487,0.9281593,0.1336866,25.87694,-24.12642,-24.72488,1001.496
6.039982319,1.088847,5.930517,-0.385129,0.0008206361,1.085676,0.1810807,26.24035,-23.75661,-25.16266,1001.496
6.060166359,-0.1979337,7.484505,-0.6902951,0.0372879,1.101215,0.183281,26.24035,-23.75661,-25.16266,1001.495
6.080349445,-0.994512,8.440804,-0.385129,0.005046234,0.9757612,0.1798723,26.23062,-23.45039,-24.72363,1001.495
6.100533485,-2.158742,10.05456,0.6524357,0.0003400082,0.8469564,0.1646787,26.23062,-23.45039,-24.72363,1001.499
6.120717526,-0.07538315,12.86369,1.201735,0.007764379,1.109342,0.199056,26.23062,-23.45039,-24.72363,1001.499
6.140900612,2.436902,12.86369,-0.2630626,0.02119541,1.116245,0.1582996,26.61018,-23.75921,-24.72205,1001.499
6.161084652,-0.5655852,10.65225,0.7134689,-0.02782244,0.8635403,0.1115237,26.61018,-23.75921,-24.72205,1001.499
6.178745270,-3.935724,10.05456,-0.3240958,0.03029676,0.9605103,0.2408433,26.98166,-23.76026,-24.72057,1001.497
6.198929310,0.04716736,11.90739,1.323801,0.08289467,1.039588,0.1630175,26.98166,-23.76026,-24.72057,1001.497
6.219113350,5.071738,9.576411,0.6524357,-0.06915169,1.010017,0.1324871,26.98166,-23.76026,-24.72057,1001.497
6.239296913,1.211397,10.59248,0.6524357,0.03721984,1.025993,0.2440755,27.71652,-23.4546,-24.71772,1001.497
6.259480476,-1.178338,11.01086,1.262768,0.04327251,0.966725,0.1222201,27.71652,-23.4546,-24.71772,1001.499
6.279664517,-1.423439,11.66832,0.8965686,0.01547001,0.7943688,0.06678494,26.59881,-23.45454,-23.84389,1001.499
6.299848080,-0.9332367,12.14647,2.422399,0.001707743,1.0919,0.1899611,26.59881,-23.45454,-23.84389,1001.497
6.320031643,3.417306,12.68439,0.2252032,-0.03348003,1.2512,0.09974091,26.59881,-23.45454,-23.84389,1001.497
6.340215683,2.498178,13.28207,1.628967,0.08488927,1.193934,0.1393071,27.32235,-22.71801,-23.84119,1001.497
6.360399246,0.1084426,12.68439,1.384834,0.01757496,1.017738,0.1188881,27.32235,-22.71801,-23.84119,1001.497
6.380582810,1.088847,9.397105,-0.2020294,-0.04879684,0.9229114,0.1029978,27.35149,-23.76285,-24.27996,1001.499
6.400766850,1.640324,7.185661,-0.385129,-0.0031764,0.9765037,0.2392626,27.35149,-23.76285,-24.27996,1001.499
6.420950413,0.905021,7.006354,1.018635,-0.0251273,0.8791902,0.1497833,28.02608,-23.45547,-24.71649,1001.499
6.441133976,-0.994512,8.978724,1.323801,0.007306721,0.8299675,0.129298,28.02608,-23.45547,-24.71649,1001.499
6.458795071,-0.4430347,8.082192,0.5303693,0.002705507,0.9302666,0.1711899,28.02608,-23.45547,-24.71649,1001.503
6.478978157,0.2922684,8.082192,1.140701,0.02031363,0.831971,0.09331114,27.72962,-24.13609,-23.46283,1001.503
6.499162197,-0.0141079,10.11433,1.751034,0.01085529,0.855845,0.1147207,27.72962,-24.13609,-23.46283,1001.5
6.519346237,1.088847,12.32577,1.384834,0.01022314,1.066882,0.1359289,28.42013,-24.50755,-23.39725,1001.5
6.539529324,-0.0141079,10.05456,0.7745022,-0.02007901,1.019685,0.1593687,28.42013,-24.50755,-23.39725,1001.499
6.559713364,-0.994512,10.1741,0.5914025,0.05603485,0.9892306,0.07058199,28.42013,-24.50755,-23.39725,1001.499
6.579897404,-1.545989,11.24994,2.361366,0.01811373,1.052369,0.1453619,28.01974,-23.46143,-23.0227,1001.499
6.600081444,-1.178338,9.815486,0.7745022,-0.05212204,1.03724,0.1490582,28.01974,-23.46143,-23.0227,1001.499
6.620264530,0.3535436,5.751211,0.4083028,0.0008315632,1.006318,0.1216062,28.02948,-23.76765,-23.46172,1001.5
6.640448570,1.211397,6.707511,1.628967,0.06582243,1.096863,0.07853687,28.02948,-23.76765,-23.46172,1001.5
6.660632610,0.1697179,6.169592,0.5914025,0.05792793,0.991145,0.1246282,28.02948,-23.76765,-23.46172,1001.5
6.680815697,-0.3817594,4.077685,0.04210352,0.0374782,0.888662,0.0700786,28.38457,-23.0903,-23.83688,1001.504
6.700999737,-0.2592089,4.376529,1.018635,0.02181683,1.183781,0.1893171,28.38457,-23.0903,-23.83688,1001.504
6.721183777,1.150122,6.468436,0.6524357,0.0363832,0.9398013,0.04189712,28.40072,-23.76892,-23.39751,1001.504
6.738844395,-0.6881357,6.050055,1.384834,-0.06905047,0.9622576,0.1115917,28.40072,-23.76892,-23.39751,1001.504
6.759027958,0.9662962,5.093754,0.04210352,0.01039238,1.132047,0.1610612,28.40072,-23.76892,-23.39751,1001.504
6.779211521,2.436902,6.050055,1.262768,0.0217161,1.036262,0.01609231,28.02139,-23.45988,-23.46183,1001.504
6.799395561,-0.3817594,5.691442,1.018635,-0.03799881,0.8680195,0.08437844,28.02139,-23.45988,-23.46183,1001.504
6.819579125,-1.484714,5.512136,1.567934,-0.0237081,1.080017,0.1775986,29.14226,-23.77235,-23.01816,1001.504
6.839763165,-1.423439,2.762773,0.8355353,-0.0288423,0.9479332,0.1015174,29.14226,-23.77235,-23.01816,1001.506
6.859946251,-2.526393,2.463929,1.323801,0.02188135,0.9018983,0.08009519,29.14226,-23.77235,-23.01816,1001.506
6.880130291,-0.3817594,1.627167,-0.0189297,0.0783443,0.9390739,0.08026148,28.39766,-23.77179,-22.58198,1001.506
6.900314331,2.927104,1.866242,0.16417,0.06050812,0.978977,0.03631143,28.39766,-23.77179,-22.58198,1001.506
6.920497418,1.701599,1.985779,-0.6292619,0.07477619,1.072105,0.194328,28.77079,-23.77129,-23.01963,1001.506
6.940681458,-0.8719615,1.44786,-0.3240958,0.004120541,0.9334887,0.1415698,28.77079,-23.77129,-23.01963,1001.506
6.960865498,-3.016595,1.507629,-0.07996292,-0.03406748,0.9795167,0.182437,28.39766,-23.77179,-22.58198,1001.506
6.981048584,-1.66854,1.029479,0.2862364,-0.03253877,0.934068,0.1260643,28.39766,-23.77179,-22.58198,1001.506
6.998710155,-0.1366584,1.686935,0.469336,-0.06073297,0.9132289,0.0843334,28.39766,-23.77179,-22.58198,1001.506
7.018893242,3.907508,2.105317,0.5914025,-0.01528464,0.9052975,0.02377296,28.77079,-23.77129,-23.01963,1001.506
7.039077282,1.762874,1.806473,0.3472696,0.008923906,1.014196,0.1699224,28.77079,-23.77129,-23.01963,1001.506
7.059261322,-0.1979337,1.388092,0.5303693,4.910514E-05,1.069615,0.1870896,28.39931,-23.77024,-23.02111,1001.506
7.079444408,-1.239613,1.388092,0.5914025,0.0199954,1.056248,0.1478688,28.39931,-23.77024,-23.02111,1001.508
7.099628449,-0.5043099,1.627167,0.3472696,0.03939714,1.007772,0.130337,28.39931,-23.77024,-23.02111,1001.508
7.119812489,1.333948,0.9697104,0.2862364,0.002956264,1.068858,0.1700398,28.77885,-24.14215,-22.58038,1001.508
7.139996052,1.82415,0.4317916,-0.2020294,0.01963135,0.9673285,0.1237265,28.77885,-24.14215,-22.58038,1001.508
7.160179615,0.6599199,-0.6440459,-0.2630626,0.01067532,0.9493455,0.1647436,29.13088,-23.46767,-22.14,1001.51
7.180363655,-0.7494109,-1.958959,-0.1409961,-0.01438615,0.9869064,0.1995848,29.13088,-23.46767,-22.14,1001.51
7.200547218,0.1697179,-1.42104,0.3472696,0.0234422,1.050549,0.1414253,29.13088,-23.46767,-22.14,1001.51
7.220730782,-0.1979337,-3.094565,-0.3240958,-0.006704282,0.9117214,0.1216914,29.13897,-23.77544,-22.1399,1001.51
7.240914345,-1.239613,-3.154334,0.16417,0.01349803,0.9155346,0.1582313,29.13897,-23.77544,-22.1399,1001.51
7.261098385,-0.8106862,-3.393409,-0.2020294,0.0313023,1.037395,0.2092756,29.14226,-23.77235,-23.01816,1001.51
7.278759003,0.7824704,-3.094565,-0.385129,0.01713049,1.053712,0.1551216,29.14226,-23.77235,-23.01816,1001.51
7.298943043,0.04716736,-3.692253,-0.5071955,0.007633471,1.000913,0.1881517,29.14226,-23.77235,-23.01816,1001.51
7.319126129,0.04716736,-3.393409,-0.4461623,0.03722557,0.9481445,0.1301332,28.39427,-23.45961,-23.83675,1001.511
7.339310169,0.4148189,-2.915259,-0.385129,0.03455536,0.9693525,0.1373691,28.39427,-23.45961,-23.83675,1001.511
7.359494209,1.272672,-1.361271,0.16417,-0.001616679,0.9693871,0.1286643,28.39122,-23.46248,-23.02122,1001.511
7.379677296,1.088847,0.1927166,-0.0189297,0.007518992,0.971195,0.1554489,28.39122,-23.46248,-23.02122,1001.511
7.399861336,1.150122,-1.002658,0.2862364,-0.009595633,0.9505222,0.1623637,28.39122,-23.46248,-23.02122,1001.511
7.420045376,-0.3817594,-1.480808,0.6524357,-0.0303737,0.9535131,0.1716986,28.77079,-23.77129,-23.01963,1001.511
7.440228462,-1.239613,-1.361271,0.2252032,-0.02007474,0.9397765,0.1553542,28.77079,-23.77129,-23.01963,1001.513
7.460412502,-2.220017,-2.795721,0.469336,-0.01118116,1.000969,0.2032646,29.13417,-23.46458,-23.01826,1001.513
7.480596542,-0.6881357,-1.361271,0.3472696,0.02998734,1.067548,0.1471046,29.13417,-23.46458,-23.01826,1001.513
7.500780583,1.82415,-1.361271,0.3472696,0.03399123,1.095086,0.1612682,29.13581,-23.46304,-23.45739,1001.513
7.520963669,0.5986447,-1.719884,-0.3240958,0.0534034,1.005888,0.1458499,29.13581,-23.46304,-23.45739,1001.513
7.541147709,-1.545989,-2.018728,-0.6292619,0.05128838,0.9808848,0.1721204,29.13581,-23.46304,-23.45739,1001.513
7.558808327,-1.79109,-1.839421,-0.7513283,0.02653063,1.033752,0.1785555,28.75299,-23.09422,-23.01987,1001.513
7.578991890,-1.117062,-1.42104,-0.7513283,-0.001874191,0.9114679,0.105622,28.75299,-23.09422,-23.01987,1001.513
7.599175930,-0.8106862,-0.8233522,-0.0189297,-0.03835006,0.8961859,0.1262963,28.76434,-23.46199,-23.45887,1001.511
7.619359493,0.5373694,-0.7635835,0.16417,-0.01423967,1.015392,0.1612215,28.76434,-23.46199,-23.45887,1001.511
7.639543057,0.1084426,-1.600346,-0.6292619,0.0008078246,1.007264,0.1727166,28.76434,-23.46199,-23.45887,1001.511
7.659727097,-0.4430347,-2.078496,-0.385129,-0.002719412,0.9405957,0.1475596,29.50565,-23.46563,-23.01678,1001.511
7.679910660,-0.1979337,-0.6440459,0.04210352,0.0177188,1.00442,0.1916124,29.50565,-23.46563,-23.01678,1001.511
7.700094223,0.5986447,0.3720229,0.3472696,0.01097206,1.043366,0.2118565,29.49899,-23.09345,-23.83244,1001.51
7.720278263,1.885425,0.0731791,-0.5071955,-0.002149589,1.012592,0.1684471,29.49899,-23.09345,-23.83244,1001.51
7.740461826,0.6599199,-1.540577,-0.0189297,-0.006754864,0.9936183,0.2181968,29.49899,-23.09345,-23.83244,1001.508
7.760645390,-0.7494109,-0.9428898,0.04210352,0.01582376,0.923053,0.1364802,29.49735,-23.095,-23.39331,1001.508
7.780829430,-1.729815,-0.1061272,-0.3240958,0.01389866,1.000692,0.2197662,29.49735,-23.095,-23.39331,1001.506
7.801013470,-2.403843,2.105317,1.018635,0.02946045,0.9894049,0.2574737,29.50706,-23.46431,-23.39318,1001.506
7.821196556,1.027571,3.001848,0.5914025,-0.0172176,1.05964,0.2876409,29.50706,-23.46431,-23.39318,1001.504
7.838858128,3.294756,2.762773,-0.1409961,0.0100982,1.114621,0.2565743,29.50706,-23.46431,-23.39318,1001.504
7.859041214,0.5986447,4.316761,0.3472696,0.01810023,1.011607,0.2491713,29.49899,-23.09345,-23.83244,1001.505
7.879225254,-0.6268604,4.615604,1.079668,0.009026332,0.9655651,0.1879366,29.49899,-23.09345,-23.83244,1001.505
7.899409294,-2.342568,5.153523,0.9576018,-0.02113203,1.024953,0.2616577,29.49759,-23.09478,-23.45604,1001.505
7.919592381,-2.526393,4.496067,0.5303693,0.01760535,0.8954954,0.1330127,29.49759,-23.09478,-23.45604,1001.505
7.939776421,-0.5043099,5.571905,1.628967,0.01800275,0.9030334,0.106399,29.49759,-23.09478,-23.45604,1001.503
7.959960461,-0.2592089,5.751211,0.8965686,-0.003029151,1.044699,0.2031449,29.51679,-23.77053,-23.8322,1001.503
7.980143547,-1.484714,4.615604,1.445868,0.03163454,0.8925973,0.1042261,29.51679,-23.77053,-23.8322,1001.503
8.000327587,0.04716736,4.376529,2.117233,0.02460689,1.153089,0.1614567,29.51374,-23.7734,-23.01668,1001.503
8.020511150,0.1697179,5.273061,-0.07996292,0.07038967,1.037279,0.1328218,29.51374,-23.7734,-23.01668,1001.503
8.040694714,-1.055787,6.28913,0.2862364,0.05772458,0.8090705,0.1132396,29.51374,-23.7734,-23.01668,1001.503
8.060878754,1.517774,6.827048,1.567934,-0.003739459,0.9853275,0.1304427,29.85936,-22.72651,-23.45469,1001.501
8.081062317,3.294756,7.72358,0.3472696,0.04534284,1.034466,0.1347492,29.85936,-22.72651,-23.45469,1001.501
8.098722935,0.8437457,9.397105,0.7745022,0.01903883,0.9746863,0.2114586,29.86906,-23.09583,-23.45457,1001.501
8.118906975,-1.66854,11.36947,2.178266,-0.02786432,1.064125,0.2103781,29.86906,-23.09583,-23.45457,1001.501
8.139090538,-1.239613,11.84762,0.9576018,0.03360716,0.9677742,0.1485307,29.86906,-23.09583,-23.45457,1001.501
8.159274101,1.333948,10.59248,1.018635,-0.03370459,0.9900187,0.150043,30.22919,-22.72911,-23.01408,1001.501
8.179458141,1.701599,11.72809,1.995167,0.02048343,0.9377983,0.07350896,30.22919,-22.72911,-23.01408,1001.501
8.199642181,1.027571,9.755717,1.812067,0.01144627,0.9653579,0.1635996,30.99155,-23.46984,-23.01087,1001.501
8.219825268,-0.7494109,8.859186,2.361366,-0.02109164,0.9451223,0.1033967,30.99155,-23.46984,-23.01087,1001.501
8.240009308,-2.83277,10.53271,2.300333,0.01041717,1.01128,0.1241233,30.62008,-23.46879,-23.01235,1001.501
8.260193348,3.172205,9.038492,0.8355353,0.002934609,1.110592,0.163567,30.62008,-23.46879,-23.01235,1001.503
8.280376434,4.213885,7.604042,2.178266,0.02708448,0.9893692,0.1110139,30.62008,-23.46879,-23.01235,1001.503
8.300560474,-1.484714,7.663811,1.201735,0.0401477,0.9863311,0.09487727,30.2356,-23.10151,-22.1357,1001.505
8.320744515,-3.506797,7.424736,1.323801,-0.0446429,0.938615,0.0891915,30.2356,-23.10151,-22.1357,1001.505
8.340927601,1.456498,4.85468,2.300333,-0.007956591,1.095942,0.06110983,31.28812,-23.10449,-22.13151,1001.505
8.361111641,4.152609,3.420229,0.4083028,0.02408355,1.000796,-0.01964733,31.28812,-23.10449,-22.13151,1001.505
8.378772259,0.2309931,1.089248,-0.385129,0.01930913,0.9156946,0.05312316,31.28812,-23.10449,-22.13151,1001.507
8.398956299,-1.545989,-0.5245085,0.2862364,0.04884451,0.9462549,0.04492608,30.98826,-23.47293,-22.13261,1001.507
8.419139862,-2.465118,0.9099417,-0.07996292,0.007117128,1.084164,0.147467,30.98826,-23.47293,-22.13261,1001.507
8.439323425,-0.5043099,-0.4049709,-0.5071955,0.01430983,0.969723,0.06977057,30.61373,-23.47475,-21.31856,1001.507
8.459507465,0.6599199,-1.600346,-0.2630626,0.04909521,0.9649346,0.06719181,30.61373,-23.47475,-21.31856,1001.507
8.479691029,-0.3204842,-0.4049709,-1.056494,0.04026241,1.055715,0.1342041,30.61373,-23.47475,-21.31856,1001.507
8.499875069,-1.055787,-1.660115,-1.483727,0.02698303,0.9587883,0.06758921,30.62487,-23.77964,-22.13398,1001.507
8.520058632,-2.158742,-2.795721,-1.178561,-0.02391285,1.017733,0.1549564,30.62487,-23.77964,-22.13398,1001.507
8.540242195,-2.587669,-3.33364,-1.72786,-0.00655997,1.01835,0.1675944,31.29642,-23.47513,-21.75498,1001.507
8.560426235,0.2309931,-3.393409,-0.8733948,0.02042334,0.9425259,0.0852807,31.29642,-23.47513,-21.75498,1001.507
8.580609322,2.253077,-0.7038147,-0.7513283,0.05020331,1.030906,0.159001,31.29642,-23.47513,-21.75498,1001.507
8.600793362,3.356031,-0.1061272,-0.8123615,0.02340158,1.052039,0.2353661,31.30286,-23.78444,-21.31574,1001.507
8.620977402,0.5373694,0.1927166,-0.2020294,-0.009567746,0.9479797,0.174478,31.30286,-23.78444,-21.31574,1001.503
8.641160488,-2.158742,1.44786,0.16417,0.004861873,1.029253,0.2578119,31.29642,-23.47513,-21.75498,1001.503
8.658822060,-0.8106862,2.40416,-0.4461623,0.0006893193,0.9772127,0.1735818,31.29642,-23.47513,-21.75498,1001.495
8.679005146,-0.1366584,3.300692,0.4083028,-0.0155294,1.002168,0.1736129,31.29642,-23.47513,-21.75498,1001.495
8.699189186,0.2922684,4.914448,0.469336,-0.004236151,1.065356,0.1704676,31.30592,-23.78157,-22.13127,1001.495
8.719373226,0.2922684,4.555836,0.6524357,-0.0006702435,1.049142,0.1983635,31.30592,-23.78157,-22.13127,1001.496
8.739556313,-0.9332367,6.169592,0.6524357,-0.003596989,0.9728664,0.1657167,30.99494,-23.78201,-21.75611,1001.496
8.759740353,-2.281292,7.185661,1.995167,-0.04137735,0.9460495,0.1749731,30.99494,-23.78201,-21.75611,1001.496
8.779924393,-0.1366584,7.72358,1.323801,-0.005821593,0.9968718,0.1846853,31.66789,-23.47618,-21.7535,1001.496
8.800107956,1.640324,5.631673,1.201735,0.03795419,1.00806,0.09920323,31.66789,-23.47618,-21.7535,1001.496
8.820291519,0.7211952,4.615604,0.469336,0.0760287,1.089038,0.1498953,31.66789,-23.47618,-21.7535,1001.496
8.840475559,-0.3204842,4.137455,-0.1409961,0.0435943,0.9409707,0.0813232,31.67269,-23.78703,-20.87514,1001.498
8.860659123,-1.239613,2.105317,-0.6292619,0.04420285,1.008412,0.1707293,31.67269,-23.78703,-20.87514,1001.498
8.880842686,-1.300888,2.40416,-1.36166,0.07399496,1.017535,0.1747588,32.42535,-24.15844,-20.87205,1001.498
8.901026726,0.4148189,3.001848,-0.9954612,0.03851891,1.000343,0.1452754,32.42535,-24.15844,-20.87205,1001.498
8.921210289,2.191801,5.093754,-0.2630626,0.009049857,0.9259249,0.08107613,32.42535,-24.15844,-20.87205,1001.498
8.938870907,2.069251,6.587973,-0.0189297,-0.04632994,0.9584761,0.08715412,31.30286,-23.78444,-21.31574,1001.498
8.959054947,1.82415,6.587973,-0.2630626,-0.0570844,1.009213,0.1339132,31.30286,-23.78444,-21.31574,1001.498
8.979238033,0.4760941,4.735142,0.2252032,-0.06061304,0.9424291,0.120432,30.98356,-23.47734,-20.87795,1001.498
8.999422073,-1.852365,3.240923,0.8355353,-0.03710065,0.9505712,0.2139833,30.98356,-23.47734,-20.87795,1001.5
9.019606113,-1.055787,2.165085,1.018635,-0.004311207,1.03114,0.2004455,30.98356,-23.47734,-20.87795,1001.5
9.039789200,1.333948,2.762773,1.079668,0.04322168,1.089216,0.1806019,32.04252,-23.78962,-20.43452,1001.5
9.059973240,2.253077,3.898379,0.469336,0.04641941,1.064973,0.138271,32.04252,-23.78962,-20.43452,1001.5
9.080157280,2.191801,3.778842,-0.3240958,0.05025347,1.027296,0.1321672,32.04252,-23.78962,-20.43452,1001.5
9.100340366,0.5373694,2.762773,-0.3240958,0.02080551,0.9884506,0.1942113,32.04252,-23.78962,-20.43452,1001.5
9.120524406,-0.4430347,2.643235,-0.6292619,0.01788698,0.9515303,0.1506653,32.04252,-23.78962,-20.43452,1001.5
9.140708447,-0.9332367,2.583467,0.04210352,-0.00108257,0.9253111,0.1277912,32.04111,-23.79095,-20.05813,1001.5
9.160892487,-0.7494109,2.40416,-0.0189297,-0.02014721,0.9850665,0.1810666,32.04111,-23.79095,-20.05813,1001.5
9.181075573,1.517774,2.583467,-0.0189297,0.01516181,0.9778908,0.1268616,31.66155,-23.48214,-20.05972,1001.5
9.198736191,0.04716736,1.806473,0.5303693,-0.03137523,0.9958972,0.195895,31.66155,-23.48214,-20.05972,1001.504
9.218920231,0.4148189,1.92601,-0.1409961,0.009230058,1.028733,0.1702096,31.66155,-23.48214,-20.05972,1001.504
9.239104271,0.7824704,1.029479,-0.1409961,-0.003796189,0.9110418,0.0968578,31.29957,-23.78753,-20.43748,1001.504
9.259287834,-0.07538315,2.942079,0.2862364,0.05058244,0.9586112,0.2183929,31.29957,-23.78753,-20.43748,1001.504
9.279471397,1.150122,2.344392,-0.385129,0.02362315,0.915545,0.1723276,32.4237,-24.15999,-20.43292,1001.498
9.299655438,1.272672,2.942079,-0.7513283,0.03350056,0.8971218,0.1393472,32.4237,-24.15999,-20.43292,1001.498
9.319839001,-0.7494109,2.284623,0.16417,-0.005513396,1.009639,0.2657109,32.04111,-23.79095,-20.05813,1001.498
9.340022564,-1.545989,1.44786,-0.2020294,-0.00255759,1.005148,0.2344762,32.04111,-23.79095,-20.05813,1001.498
9.360206127,-0.6268604,1.328323,0.8355353,0.009398233,1.054165,0.1955286,32.04111,-23.79095,-20.05813,1001.498
9.380390167,1.027571,1.92601,0.04210352,0.04168156,0.9384012,0.1420985,31.67934,-24.15921,-20.05948,1001.498
9.400573731,2.375627,1.746704,0.2252032,0.004597196,1.051973,0.2139826,31.67934,-24.15921,-20.05948,1001.498
9.420757294,1.579049,-0.2256647,-0.1409961,-0.02440199,1.018124,0.1637234,32.02974,-23.48627,-19.17998,1001.498
9.440941334,-2.158742,-3.214103,-0.5071955,0.01232571,1.011563,0.1961409,32.02974,-23.48627,-19.17998,1001.498
9.461124897,-5.773982,-6.20254,-0.4461623,0.04575859,0.9593812,0.1824078,32.02974,-23.48627,-19.17998,1001.498
9.478785992,-3.629348,-5.545084,-0.5071955,0.08571387,0.9271658,0.1194285,32.03947,-23.79249,-19.619,1001.498
9.498969078,-0.3204842,-3.512946,-0.6292619,0.04207204,0.9443976,0.2220168,32.03947,-23.79249,-19.619,1001.498
9.519153118,2.191801,-3.034796,-0.934428,-0.03171265,0.9836219,0.21171,32.42229,-24.16131,-20.05652,1001.5
9.539337158,2.314352,-2.85549,-0.4461623,-0.008058139,1.022799,0.1564931,32.42229,-24.16131,-20.05652,1001.5
9.559521198,1.211397,-3.692253,-0.385129,0.02667139,0.9437969,0.1130321,32.42229,-24.16131,-20.05652,1001.501
9.579704285,1.885425,-2.317571,-0.8733948,-0.007400706,1.008203,0.1635021,32.42065,-24.16286,-19.61739,1001.501
9.599888325,0.5373694,-4.170403,-1.483727,-0.008374026,0.8508118,0.1049176,32.42065,-24.16286,-19.61739,1001.501
9.620072365,-0.6268604,-2.915259,-0.07996292,-0.006160525,1.026057,0.1239535,32.02974,-23.48627,-19.17998,1001.501
9.640255451,-0.1366584,-0.9428898,0.4083028,-0.04235486,1.067772,0.1141273,32.02974,-23.48627,-19.17998,1001.503
9.660439491,-0.6268604,-0.4049709,0.3472696,-0.02481079,0.8936154,0.1126011,32.02974,-23.48627,-19.17998,1001.503
9.680623532,-4.11955,-3.81179,1.567934,-0.09114856,0.8731362,0.2217752,31.68905,-24.52853,-20.05935,1001.499
9.700806618,0.4760941,-2.37734,1.567934,-0.02188808,1.049819,0.1473164,31.68905,-24.52853,-20.05935,1001.499
9.720990658,3.846233,-3.991096,-0.2020294,0.06166213,1.002312,0.0791046,32.04918,-24.16181,-19.61887,1001.501
9.741174221,3.294756,-5.126703,-1.483727,0.1171968,0.9940914,0.2092656,32.04918,-24.16181,-19.61887,1001.501
9.758834839,0.5373694,-3.991096,-0.0189297,0.04684009,0.8713581,0.1188676,32.04918,-24.16181,-19.61887,1001.501
9.779018879,-0.2592089,-1.779652,-0.2630626,0.05037437,0.9376386,0.1342853,30.98695,-23.78952,-19.62319,1001.501
9.799202442,-1.607265,-2.975028,-0.8733948,0.007172744,1.038451,0.2132246,30.98695,-23.78952,-19.62319,1001.501
9.819386006,-0.9332367,-0.7038147,-0.8733948,0.03732727,0.9400699,0.1139159,31.31429,-24.53057,-19.18257,1001.501
9.839570046,1.088847,3.240923,1.201735,-0.0766898,0.9548793,0.1601155,31.31429,-24.53057,-19.18257,1001.501
9.859753609,1.82415,4.017917,1.8731,-0.1139744,1.046186,0.1804676,31.31429,-24.53057,-19.18257,1001.501
9.879937172,2.191801,0.3720229,1.812067,-0.1453179,1.164777,0.1945388,31.6777,-24.16076,-19.62035,1001.501
9.900121212,0.9662962,1.806473,1.262768,-0.05557222,0.9662765,0.01968651,31.6777,-24.16076,-19.62035,1001.497
9.920305252,0.9662962,2.463929,2.422399,0.01769449,1.086551,0.1669622,31.6874,-24.53007,-19.62022,1001.497
9.940488338,-1.055787,1.985779,1.8731,0.06146468,0.8971073,0.1826121,31.6874,-24.53007,-19.62022,1001.497
9.960672379,-0.7494109,0.8501729,1.69,0.07963873,1.030039,0.1438564,31.00308,-24.53123,-18.74467,1001.497
9.980856419,-0.07538315,0.1329478,0.4083028,0.09114646,1.11473,0.1713048,31.00308,-24.53123,-18.74467,1001.497
10.001039505,0.7824704,1.985779,1.079668,0.08653197,0.9006431,0.05905221,31.00308,-24.53123,-18.74467,1001.497
10.018701077,0.2309931,2.40416,0.7745022,0.0342741,0.99264,0.1339377,30.26983,-24.89845,-18.7475,1001.499
10.038884163,0.3535436,2.105317,-0.5682287,0.005567656,0.8948691,0.08046661,30.26983,-24.89845,-18.7475,1001.499
10.059068203,-0.2592089,1.567398,0.16417,0.03659661,0.9602461,0.1303736,31.01443,-24.899,-19.18367,1001.501
10.079251766,0.6599199,3.001848,-0.0189297,0.007448559,0.9789462,0.05779852,31.01443,-24.899,-19.18367,1001.501
10.099435329,1.762874,3.599535,0.1031367,8.342536E-05,1.10725,0.1542599,31.01443,-24.899,-19.18367,1001.495
10.119619370,-1.66854,3.539767,-0.2020294,-0.008219143,0.9563751,0.1605312,30.64131,-24.8995,-18.74602,1001.495
10.139802933,-0.994512,2.583467,0.5303693,-0.01998793,0.934349,0.06766106,30.64131,-24.8995,-18.74602,1001.495
10.159986496,0.2922684,0.9099417,0.5914025,-0.04308692,0.9311894,0.009728612,31.01137,-24.90187,-18.36814,1001.495
10.180170536,0.6599199,-0.4049709,-0.2630626,0.00947138,1.049547,0.1239089,31.01137,-24.90187,-18.36814,1001.497
10.200354099,0.5373694,-0.8233522,-0.2020294,0.02171483,0.9558952,0.05829454,31.01137,-24.90187,-18.36814,1001.497
10.220537663,-0.994512,0.3720229,-0.2630626,0.02066538,1.001105,0.1394777,30.63825,-24.90237,-17.93049,1001.497
10.240721703,1.885425,-0.883121,0.3472696,-0.001681787,1.015285,0.09307879,30.63825,-24.90237,-17.93049,1001.497
10.260905266,2.865829,-1.002658,0.04210352,0.007860984,1.023493,0.1102578,30.64295,-24.89795,-19.18515,1001.499
10.281089306,2.314352,-0.8233522,0.2252032,0.01801505,1.021048,0.1277116,30.64295,-24.89795,-19.18515,1001.499
10.298749924,0.04716736,0.6110979,0.5914025,0.002033004,0.9474949,0.0941646,30.64295,-24.89795,-19.18515,1001.499
10.318933010,-1.055787,1.388092,1.201735,0.008132226,0.8823794,0.07340344,30.63019,-24.53151,-18.36975,1001.499
10.339117050,-2.403843,1.806473,-0.6292619,0.05114617,1.07072,0.2498061,30.63019,-24.53151,-18.36975,1001.499
10.359301090,-0.3204842,1.328323,0.1031367,0.04147345,0.9551314,0.1648129,30.27813,-25.26909,-18.37097,1001.499
10.379485130,0.04716736,4.017917,-0.2630626,0.02696665,0.9584037,0.1551672,30.27813,-25.26909,-18.37097,1001.497
10.399668217,1.150122,5.213292,0.7134689,0.009956978,0.9686014,0.1763173,30.27813,-25.26909,-18.37097,1001.497
10.419852257,2.98838,6.109823,0.7745022,-0.01304192,0.9185573,0.05809317,30.26013,-24.52913,-18.74763,1001.496
10.440036297,1.517774,7.364967,0.5303693,0.04045879,0.9596935,0.1430083,30.26013,-24.52913,-18.74763,1001.496
10.460219383,-0.3204842,8.440804,0.4083028,0.03842236,0.9682287,0.158751,31.00973,-24.90342,-17.92902,1001.494
10.480403423,-1.362164,9.695949,0.1031367,0.02689546,0.9641531,0.1616068,31.00973,-24.90342,-17.92902,1001.494
10.500587463,-1.545989,10.59248,0.8355353,0.001712876,0.8544492,0.09524307,30.28783,-25.6384,-18.37084,1001.492
10.520771027,0.6599199,10.29364,1.201735,0.02499725,0.923139,0.09267567,30.28783,-25.6384,-18.37084,1001.492
10.540954590,2.682003,9.63618,0.6524357,-0.02872392,1.056296,0.1678913,30.28783,-25.6384,-18.37084,1001.496
10.561138630,0.7824704,10.41317,0.2862364,0.006080796,1.049228,0.1998151,30.64632,-25.27323,-17.49123,1001.496
10.578799248,-1.607265,11.1304,0.3472696,0.007113514,1.003605,0.2091289,30.64632,-25.27323,-17.49123,1001.494
10.598982811,-2.158742,10.83155,0.3472696,0.02618872,0.942784,0.1655641,30.63825,-24.90237,-17.93049,1001.494
10.619166374,0.7211952,9.935023,0.9576018,0.02078189,0.9913455,0.1465831,30.63825,-24.90237,-17.93049,1001.494
10.639350414,2.436902,9.63618,1.079668,0.00214691,1.016812,0.1403023,30.63825,-24.90237,-17.93049,1001.494
10.659533978,2.007976,9.935023,0.3472696,0.01503024,0.9100224,0.08123922,31.01944,-25.27273,-17.92889,1001.494
10.679717541,0.6599199,9.935023,1.201735,0.009476908,0.9687728,0.1583177,31.01944,-25.27273,-17.92889,1001.494
10.699901104,-0.5655852,11.24994,0.8965686,0.02132886,0.9860392,0.1450175,31.02585,-25.64514,-17.0505,1001.492
10.720085144,-1.423439,12.92346,1.384834,0.01098089,0.9638349,0.1698958,31.02585,-25.64514,-17.0505,1001.492
10.740269184,0.8437457,15.01537,2.483432,-0.006814712,0.9635686,-0.02520463,31.02585,-25.64514,-17.0505,1001.494
10.760452271,2.375627,14.77629,2.2393,0.04371948,1.00928,0.1313336,30.27649,-25.27063,-17.93184,1001.494
10.780636311,1.088847,13.9993,1.69,-0.003902544,0.9980237,0.1691345,30.27649,-25.27063,-17.93184,1001.494
10.800820351,0.2922684,12.20624,3.032731,-0.08435988,1.031039,0.1397377,31.68443,-24.9113,-16.23252,1001.494
10.821003437,-1.362164,11.24994,1.567934,0.01557354,0.9440587,0.1188926,31.68443,-24.9113,-16.23252,1001.496
10.838665009,-0.6881357,7.544273,1.140701,-0.01982718,0.9195207,0.1461944,31.68443,-24.9113,-16.23252,1001.496
10.879032135,1.640324,6.647742,2.2393,0.0009142138,1.037283,0.2239156,30.65297,-25.64541,-16.67558,1001.495
10.899216175,1.211397,6.348898,2.178266,-0.02880955,1.023146,0.1881586,31.3243,-25.27802,-16.673,1001.495
10.919399262,-0.3817594,7.006354,1.567934,0.01017011,0.9522864,0.1117646,31.3243,-25.27802,-16.673,1001.496
10.939583302,-2.220017,8.620111,2.361366,-0.007948062,0.9728614,0.2085426,31.3243,-25.27802,-16.673,1001.496
10.959767342,-1.729815,9.63618,2.971698,-0.02868768,0.9345372,0.1333668,30.64162,-25.27764,-16.23658,1001.493
10.979950428,1.333948,9.695949,2.544466,0.01567117,0.9752927,0.1452998,30.64162,-25.27764,-16.23658,1001.493
11.000134468,4.091334,8.321267,2.117233,0.08179591,1.011125,0.1488314,30.66103,-26.01627,-16.23632,1001.493
11.020318508,2.375627,8.859186,1.69,0.03193482,0.947266,0.113093,30.66103,-26.01627,-16.23632,1001.493
11.040501595,-1.66854,9.337336,1.140701,0.06041689,0.943424,0.2010474,30.2829,-25.64304,-17.05345,1001.493
11.060685635,-1.362164,9.63618,1.262768,0.01097823,0.9645848,0.1431484,30.2829,-25.64304,-17.05345,1001.493
11.080869198,-0.5043099,12.20624,1.995167,-0.01285665,0.982139,0.09633187,30.2829,-25.64304,-17.05345,1001.495
11.101052761,-0.8719615,13.76022,2.2393,0.01647125,0.9482503,0.1861233,29.91644,-26.01571,-15.80015,1001.495
11.118713856,0.1084426,13.70045,3.58203,0.02375002,0.9859334,0.1104643,29.91644,-26.01571,-15.80015,1001.493
11.138897419,1.701599,14.11884,1.445868,0.03890266,0.9700156,0.07703907,30.64968,-25.6485,-15.79732,1001.493
11.159080982,1.395223,13.34184,1.995167,0.04827351,1.030805,0.1663006,30.64968,-25.6485,-15.79732,1001.491
11.179265022,0.04716736,14.83606,1.934133,-0.02998099,1.001279,0.1439347,30.64968,-25.6485,-15.79732,1001.491
11.199448586,-3.139146,14.71652,2.300333,0.006934232,0.9376091,0.2676732,30.63833,-25.28073,-15.35832,1001.487
11.219632149,-0.4430347,12.92346,2.0562,0.0295032,1.026768,0.2032289,30.63833,-25.28073,-15.35832,1001.487
11.239816189,1.762874,12.0867,1.262768,0.02796141,0.9570454,0.09820825,30.65633,-26.02068,-14.98166,1001.491
11.260000229,1.9467,15.37398,2.666532,0.04138383,0.9642053,0.08032653,30.65633,-26.02068,-14.98166,1001.491
11.280183315,2.682003,15.01537,2.300333,0.01125068,0.8641859,0.05600825,30.65633,-26.02068,-14.98166,1001.489
11.300367355,1.150122,13.40161,2.483432,-0.002566,1.006392,0.2067654,31.33573,-26.02415,-14.53982,1001.489
11.320551395,-0.2592089,14.17861,2.2393,-0.05441106,0.9872939,0.1495328,31.33573,-26.02415,-14.53982,1001.485
11.340734482,-1.79109,13.76022,2.605499,0.01051701,1.001112,0.2212393,31.01646,-25.65396,-14.54118,1001.485
11.360918522,0.1084426,14.53722,2.910665,-0.06472931,1.002344,0.1800142,31.01646,-25.65396,-14.54118,1001.485
11.360918522,0.1084426,14.53722,2.910665,-0.06472931,1.002344,0.1800142,31.01646,-25.65396,-14.54118,1001.485
11.381102562,2.436902,13.52115,2.788599,0.06488992,0.9737651,0.1286533,31.01646,-25.65396,-14.54118,1001.485
11.398763180,2.498178,13.28207,2.727565,0.03426239,0.9143202,0.1163303,30.66439,-26.39154,-14.5424,1001.484
11.439130306,-1.974916,15.01537,2.910665,-0.01996882,0.9716962,0.1126796,31.02452,-26.02482,-14.10192,1001.484
11.459314346,-1.055787,12.32577,2.178266,0.04749993,1.092896,0.2556028,31.02452,-26.02482,-14.10192,1001.484
11.479497910,-0.3204842,10.89132,3.215831,0.0366653,0.9939357,0.1534233,31.02452,-26.02482,-14.10192,1001.482
11.499681473,1.885425,11.3097,1.995167,0.05119782,0.9898815,0.0954179,30.6597,-26.39596,-13.28774,1001.482
11.519865513,1.150122,13.22231,1.201735,0.08010074,0.9926071,0.1080807,30.6597,-26.39596,-13.28774,1001.482
11.540049076,1.640324,14.05907,1.384834,-0.01429922,0.9814885,0.1109187,30.64999,-26.02664,-13.28787,1001.482
11.560232639,-0.7494109,16.74866,2.178266,0.00554173,1.014572,0.1757738,30.64999,-26.02664,-13.28787,1001.482
11.580416680,0.4760941,17.10727,1.506901,0.08619781,0.9669596,0.1138898,30.6597,-26.39596,-13.28774,1001.482
11.600600243,-0.07538315,17.58542,1.018635,-0.006401228,0.9260032,0.1477628,30.6597,-26.39596,-13.28774,1001.478
11.620784283,-0.994512,17.16704,3.154798,-0.0264494,1.065398,0.2794965,30.6597,-26.39596,-13.28774,1001.478
11.640967369,0.7824704,17.28658,2.788599,0.01628734,1.08398,0.130906,30.66614,-26.70527,-12.84851,1001.478
11.661151409,0.8437457,15.97167,2.849632,-0.02565897,1.003729,0.09872432,30.66614,-26.70527,-12.84851,1001.478
11.678812027,-0.8719615,16.8682,2.727565,0.02876122,1.009272,0.1586043,30.65477,-26.40059,-11.97035,1001.482
11.698996067,-2.894045,18.60149,3.093765,0.009036133,0.9267294,0.09763603,30.65477,-26.40059,-11.97035,1001.482
11.719180107,-3.384247,19.25895,3.093765,0.03818833,1.02634,0.2105065,30.65477,-26.40059,-11.97035,1001.478
11.739363194,1.517774,17.46589,2.971698,0.03659751,0.9612905,0.07395025,31.03453,-26.77228,-11.59235,1001.478
11.759547234,2.314352,16.0912,1.506901,0.08553839,1.061652,0.09192206,31.03453,-26.77228,-11.59235,1001.48
11.779731274,-0.5655852,16.0912,1.140701,0.05158613,1.036313,0.1532669,30.67921,-27.44985,-11.15446,1001.48
11.799914360,-3.935724,18.90034,2.605499,-0.05979678,0.9147848,0.1242629,30.67921,-27.44985,-11.15446,1001.482
11.820098400,-1.055787,19.01987,3.520997,0.04010914,0.9493154,0.1140948,30.67921,-27.44985,-11.15446,1001.482
11.840282440,2.498178,19.07964,2.971698,0.02493423,1.047533,0.1058426,30.66144,-26.70968,-11.59385,1001.485
11.860465527,2.98838,17.16704,1.567934,-0.0151236,1.088722,0.1432106,30.66144,-26.70968,-11.59385,1001.485
11.880649567,-0.2592089,16.98774,1.995167,0.01675463,0.9261086,0.1229149,30.66786,-27.08208,-10.71546,1001.487
11.900833607,-3.016595,17.70496,3.215831,-0.0179853,0.9665434,0.1466358,30.66786,-27.08208,-10.71546,1001.487
11.921016693,-1.362164,17.10727,3.154798,-0.02161163,1.066749,0.1505706,30.66786,-27.08208,-10.71546,1001.487
11.938677788,0.5373694,16.21074,3.154798,-0.01391591,0.9105086,0.08664378,31.03769,-27.08468,-10.27485,1001.487
11.958861351,2.130526,14.35791,1.812067,0.1117158,0.9708018,0.1066295,31.03769,-27.08468,-10.27485,1001.487
11.979045391,1.395223,11.96716,1.628967,0.04184908,0.9241329,0.1641988,31.04904,-27.45245,-10.71385,1001.487
11.999228954,-0.0141079,12.56485,2.300333,0.01098364,1.003708,0.1556008,31.04904,-27.45245,-10.71385,1001.487
12.019412518,-1.729815,13.93953,2.605499,0.02709975,0.9480762,0.1218748,31.04904,-27.45245,-10.71385,1001.489
12.039596081,-0.5043099,14.77629,2.361366,0.05308395,0.9921885,0.1587171,30.30445,-27.45189,-10.27768,1001.489
12.059780121,0.8437457,15.1349,1.934133,0.06545626,1.006797,0.1210343,30.30445,-27.45189,-10.27768,1001.489
12.079963684,0.5986447,15.55329,1.934133,0.03824602,0.9053856,0.04607912,30.30304,-27.45322,-9.901283,1001.489
12.100147247,0.2309931,16.50959,1.812067,0.05735464,1.037799,0.1586403,30.30304,-27.45322,-9.901283,1001.487
12.120331287,0.5986447,16.0912,1.934133,0.02263603,1.037443,0.1426269,30.30304,-27.45322,-9.901283,1001.487
12.140515327,0.5986447,15.1349,1.201735,0.01098927,0.9635581,0.1489671,30.68258,-27.82513,-9.460546,1001.487
12.160698414,2.253077,13.34184,1.506901,0.01656306,0.9819127,0.1142879,30.68258,-27.82513,-9.460546,1001.487
12.180882454,0.5986447,12.14647,0.8355353,-0.01804453,0.9316967,0.1425401,31.04435,-27.45686,-9.459196,1001.487
12.201066494,1.088847,11.54878,1.445868,-0.0130202,0.9947966,0.1389157,31.04435,-27.45686,-9.459196,1001.487
12.218727112,0.9662962,12.68439,2.117233,-0.002746501,0.9838195,0.0885649,31.04435,-27.45686,-9.459196,1001.487
12.238910198,0.1697179,13.58092,2.361366,0.01427143,0.9713966,0.1452247,30.68093,-27.82667,-9.021416,1001.487
12.259094238,0.905021,14.35791,2.666532,0.007723575,1.07311,0.1881206,30.68093,-27.82667,-9.021416,1001.487
12.279278278,0.9662962,14.83606,1.751034,0.03906542,1.034645,0.1561718,30.67929,-27.82822,-8.582286,1001.487
12.299462318,0.7824704,15.85213,2.300333,0.06483737,0.9385018,0.1177372,30.67929,-27.82822,-8.582286,1001.487
12.319645405,0.5373694,17.8245,2.483432,-0.006895614,1.007192,0.1196885,30.67788,-27.82954,-8.205889,1001.487
12.339829445,0.1697179,19.07964,3.093765,-0.01133924,0.9763724,0.09378258,30.67788,-27.82954,-8.205889,1001.485
12.360013485,1.640324,18.60149,2.788599,0.01003933,1.003421,0.08552796,30.67788,-27.82954,-8.205889,1001.485
12.380196571,0.5986447,17.88427,2.727565,0.05519662,0.977352,0.1433361,30.66817,-27.46022,-8.206017,1001.485
12.400380612,0.2922684,18.90034,2.178266,-0.009823534,1.009141,0.1630376,30.66817,-27.46022,-8.206017,1001.485
12.420564175,-1.423439,19.43826,2.849632,0.05487307,0.9633147,0.1902577,30.30476,-27.83003,-7.768237,1001.485
12.440747738,0.1084426,20.6934,2.605499,0.03569556,1.034101,0.1571392,30.30476,-27.83003,-7.768237,1001.485
12.460931778,0.04716736,20.09571,1.506901,0.04855257,0.96672,0.2282881,30.30476,-27.83003,-7.768237,1001.485
12.481115341,1.82415,20.51409,2.300333,0.05891081,0.9501272,0.1092174,30.32253,-28.57021,-7.32885,1001.485
12.498775959,1.9467,19.97617,2.605499,0.01092332,1.008417,0.1693185,30.32253,-28.57021,-7.32885,1001.484
12.518959999,1.395223,18.72103,1.69,0.03537888,0.9413398,0.1295147,29.91888,-27.46408,-6.515187,1001.484
12.539143562,0.905021,17.52565,1.140701,-0.0297413,1.020018,0.2090213,29.91888,-27.46408,-6.515187,1001.484
12.559327126,-0.1979337,17.64519,1.69,0.01979376,0.9536073,0.1395121,29.91888,-27.46408,-6.515187,1001.484
12.579511166,-0.4430347,17.88427,2.422399,-0.02024799,0.9535717,0.18093,29.91888,-27.46408,-6.515187,1001.484
12.599694252,-0.1366584,17.70496,2.544466,-0.003855443,0.9931914,0.2167243,29.91888,-27.46408,-6.515187,1001.484
12.619878292,-0.3204842,18.42219,2.422399,-0.008539981,0.9435319,0.1359481,29.94635,-28.57357,-6.075671,1001.482
12.640062332,-2.158742,19.7371,3.459964,0.01770877,0.964915,0.2175928,29.94635,-28.57357,-6.075671,1001.482
12.660246372,-0.5043099,21.76924,3.643064,0.01221998,0.9409834,0.17966,29.94635,-28.57357,-6.075671,1001.482
12.680429459,0.7211952,21.41062,2.971698,0.05787826,0.9541792,0.1876395,30.6893,-28.57567,-6.072714,1001.482
12.700613499,2.007976,20.93247,1.751034,0.06704395,0.9545903,0.1598988,30.6893,-28.57567,-6.072714,1001.478
12.720797539,0.1697179,21.88877,2.544466,0.01220228,1.02172,0.1978019,30.31618,-28.57617,-5.635062,1001.478
12.740980625,-0.6268604,23.74161,2.849632,0.02256166,1.04196,0.224463,30.31618,-28.57617,-5.635062,1001.478
12.761164665,0.5373694,23.08415,2.361366,0.008178811,0.9171504,0.1339417,30.32425,-28.94703,-5.195804,1001.478
12.778825283,1.088847,23.26345,2.300333,0.0009399347,0.9185331,0.08142833,30.32425,-28.94703,-5.195804,1001.48
12.799009323,-0.6881357,24.93698,2.483432,0.003191017,0.9701908,0.1525159,30.32425,-28.94703,-5.195804,1001.48
12.819192410,-1.66854,26.07259,4.009263,0.03355183,1.011572,0.1781063,29.20676,-28.94674,-4.384712,1001.48
12.839376450,-0.8719615,24.45883,4.070296,0.01574652,0.9292723,0.1443888,29.20676,-28.94674,-4.384712,1001.48
12.859560490,0.7211952,24.63814,3.643064,0.02145792,0.9753786,0.145293,29.94972,-28.94884,-4.381755,1001.48
12.879744053,2.007976,21.05201,3.215831,-0.0102034,0.9604981,0.1815389,29.94972,-28.94884,-4.381755,1001.48
12.899927616,0.8437457,20.93247,2.300333,0.07649105,0.9704032,0.191826,29.94972,-28.94884,-4.381755,1001.48
12.920111656,0.04716736,19.97617,3.032731,0.08462615,1.093966,0.2521634,29.58466,-29.3202,-3.504844,1001.48
12.940295219,0.905021,21.47039,3.032731,0.05757941,1.060152,0.1036115,29.58466,-29.3202,-3.504844,1001.48
12.960478783,0.1697179,21.70947,2.361366,-0.02048449,0.9341262,0.1382125,30.70879,-29.69267,-3.50028,1001.48
12.980662346,-0.994512,21.829,1.323801,0.06374222,0.9867206,0.2374203,30.70879,-29.69267,-3.50028,1001.484
13.000846386,0.4148189,22.90484,2.178266,0.1028773,0.9837648,0.1054393,30.70879,-29.69267,-3.50028,1001.484
13.021029949,0.1697179,24.10022,1.995167,0.02913249,0.8995903,0.128211,29.58325,-29.32152,-3.128447,1001.485
13.038691044,-1.423439,24.5186,2.666532,-0.0346327,0.8682547,0.1145465,29.58325,-29.32152,-3.128447,1001.485
13.058874130,0.4760941,25.83351,4.619595,-0.05404337,1.037839,0.08581662,30.32456,-29.32517,-2.68636,1001.485
13.079058170,2.743279,26.4312,3.704097,-0.01716563,1.13838,0.116461,30.32456,-29.32517,-2.68636,1001.482
13.099242210,3.11093,23.26345,2.727565,-0.02584324,0.9798765,0.06078532,30.32456,-29.32517,-2.68636,1001.482
13.119425297,2.314352,23.32322,3.704097,0.03124809,1.004902,0.06557609,29.9595,-29.69652,-1.80945,1001.483
13.139609337,1.150122,20.63363,4.253396,-0.0490845,0.9466398,0.1039544,29.9595,-29.69652,-1.80945,1001.483
13.159793377,-0.1979337,21.41062,4.131329,-0.01785683,0.9945093,0.2094721,29.57526,-29.32903,-0.9955295,1001.482
13.179976463,-0.3204842,18.9601,3.215831,0.02294002,0.9318947,0.1838437,29.57526,-29.32903,-0.9955295,1001.482
13.200160503,0.2922684,20.39455,3.032731,0.08199319,0.9944685,0.1674783,29.57526,-29.32903,-0.9955295,1001.482
13.220344544,0.4760941,21.88877,4.497529,0.1359397,0.9610623,0.1477611,28.85981,-30.37331,-0.9981223,1001.482
13.240527630,1.027571,24.63814,4.619595,0.04334632,1.039514,0.1601546,28.85981,-30.37331,-0.9981223,1001.482
13.260711670,2.007976,22.96461,3.154798,-0.03025819,1.023932,0.155575,28.84846,-30.00554,-0.5591209,1001.482
13.280895710,0.905021,21.23132,0.8355353,0.07082061,0.9615105,0.1517582,28.84846,-30.00554,-0.5591209,1001.482
13.301079750,1.027571,22.12785,1.201735,-0.04094016,0.9907046,0.1189256,28.46608,-29.69938,0.1920878,1001.482
13.318740368,-2.097466,24.5186,3.459964,0.01678299,0.9236047,0.1311373,28.46608,-29.69938,0.1920878,1001.482
13.338923454,-1.852365,25.29559,3.704097,0.03288958,1.026739,0.16235,28.46608,-29.69938,0.1920878,1001.482
13.359107494,-0.1366584,24.93698,3.704097,0.02162612,0.9621355,0.1129159,28.83755,-29.70043,0.1935664,1001.48
13.379291058,2.007976,21.05201,2.727565,0.01174847,0.9408925,0.1392722,28.83755,-29.70043,0.1935664,1001.48
13.399474621,2.865829,19.97617,2.178266,0.06306725,1.04436,0.1407581,28.46279,-29.70247,1.070348,1001.48
13.419658661,1.456498,21.05201,1.69,0.01061167,0.9953645,0.1169958,28.46279,-29.70247,1.070348,1001.48
13.439842224,-0.2592089,22.00831,2.422399,0.01778707,0.9201079,0.1432313,28.46279,-29.70247,1.070348,1001.478
13.460026264,-0.9332367,22.84507,2.422399,-0.02109514,0.9844794,0.1411563,28.09799,-30.0105,1.445374,1001.478
13.480209828,-0.6268604,23.62207,3.398931,-0.0006719398,0.9310339,0.1376356,28.09799,-30.0105,1.445374,1001.465
13.500393391,0.5373694,24.21976,3.76513,-0.02157724,0.9061604,0.07391771,28.09131,-29.70142,1.068869,1001.465
13.520577431,0.1084426,24.87721,3.459964,0.005556961,0.9742463,0.1379951,28.09131,-29.70142,1.068869,1001.469
13.540760517,1.333948,24.57837,2.971698,0.04276004,1.009681,0.08949652,28.09131,-29.70142,1.068869,1001.469
13.560944557,0.4760941,23.02438,2.2393,0.02956414,1.02308,0.1355202,28.47753,-30.38242,1.886111,1001.467
13.581128597,-1.178338,23.38299,2.178266,0.04804123,0.9710929,0.1286252,28.47753,-30.38242,1.886111,1001.467
13.598789215,-0.6268604,24.81744,3.337898,0.07139476,0.9951896,0.07894936,28.0947,-30.01359,2.323634,1001.467
13.618973255,-0.994512,24.6979,2.483432,0.0006317521,0.9434732,0.1067383,28.0947,-30.01359,2.323634,1001.467
13.639156342,0.1084426,24.81744,2.727565,-0.02921587,0.9384868,0.1251737,28.0947,-30.01359,2.323634,1001.469
13.659340382,-0.4430347,22.78531,2.849632,0.003494635,0.9052275,0.1565822,27.41061,-30.01453,3.136451,1001.469
13.679524422,1.088847,23.38299,3.459964,0.00258809,0.9409207,0.1227423,27.41061,-30.01453,3.136451,1001.457
13.699707508,2.191801,21.23132,3.093765,-0.04847252,1.05498,0.124588,27.42032,-30.38385,3.13658,1001.457
13.719891548,1.150122,20.81294,2.2393,0.004309888,0.9577616,0.1371841,27.42032,-30.38385,3.13658,1001.461
13.740075588,0.1697179,21.23132,2.483432,-0.01536354,0.9887312,0.1606955,27.42032,-30.38385,3.13658,1001.461
13.760258675,0.1084426,22.96461,3.520997,0.07689609,1.017248,0.1591781,27.42838,-30.75471,3.575838,1001.459
13.780442715,1.027571,24.33929,2.361366,0.003471633,0.9487892,0.06353313,27.42838,-30.75471,3.575838,1001.459
13.800626755,-0.1979337,25.59444,3.032731,0.06006815,0.971798,0.2220461,27.05362,-30.75675,4.45262,1001.459
13.820809841,-0.07538315,26.90935,3.826163,0.01281317,0.9327115,0.1352161,27.05362,-30.75675,4.45262,1001.459
13.840993881,1.211397,27.08866,3.948229,-0.007410119,0.969718,0.1354916,27.05362,-30.75675,4.45262,1001.457
13.858654499,1.640324,24.81744,2.849632,-0.02787148,0.9465347,0.1462543,26.69044,-31.12634,4.827667,1001.457
13.878838539,1.211397,22.18762,3.093765,-0.02801219,0.9572017,0.1941511,26.69044,-31.12634,4.827667,1001.449
13.899022103,1.211397,20.63363,3.643064,0.02133729,0.9857672,0.1236023,26.67909,-30.75857,5.266669,1001.449
13.919205666,0.5373694,19.43826,1.201735,-0.05191505,0.9807709,0.1270171,26.67909,-30.75857,5.266669,1001.453
13.939389229,1.150122,19.31872,3.215831,0.04747681,0.936281,0.2179556,26.67909,-30.75857,5.266669,1001.453
13.959573269,1.885425,19.67733,3.032731,0.05901991,0.9813403,0.08891175,26.67744,-30.76011,5.705799,1001.453
13.979756832,1.272672,20.27502,2.971698,0.06522255,0.9856445,0.1527307,26.67744,-30.76011,5.705799,1001.453
13.999940395,0.2309931,20.03594,3.093765,0.02646207,1.039719,0.163103,26.31567,-31.12838,5.704449,1001.457
14.020124435,0.4760941,20.93247,2.849632,0.03128922,1.040191,0.1227185,26.31567,-31.12838,5.704449,1001.457
14.040307999,-0.1366584,19.01987,2.178266,-0.002315156,1.026053,0.1789321,25.58078,-31.49714,6.14075,1001.457
14.060491562,-0.3817594,19.31872,1.995167,-0.0273778,0.945549,0.148667,25.58078,-31.49714,6.14075,1001.457
14.080675602,0.9662962,19.55779,3.398931,0.0009909695,0.9933177,0.1135633,25.58078,-31.49714,6.14075,1001.453
14.100859642,2.191801,19.13941,3.032731,-0.02340102,0.9766634,0.09526581,25.95085,-31.49951,6.518626,1001.453
14.121042728,1.9467,18.12334,3.215831,0.03597624,1.010765,0.1654355,25.95085,-31.49951,6.518626,1001.455
14.138703346,-0.3204842,16.50959,1.751034,-0.000117925,0.9649866,0.1349006,25.55667,-30.76292,7.39515,1001.455
14.158887386,-1.239613,17.28658,2.361366,0.001666314,0.8970325,0.1496105,25.55667,-30.76292,7.39515,1001.455
14.179071426,-0.994512,18.24288,3.459964,0.007086569,0.9279029,0.1229646,25.55667,-30.76292,7.39515,1001.455
14.199254513,0.1697179,20.03594,3.337898,0.02059542,0.9266952,0.1672003,25.1949,-31.13118,7.3938,1001.455
14.219438553,0.9662962,20.63363,3.58203,0.003409349,0.9523664,0.1424311,25.1949,-31.13118,7.3938,1001.458
14.239622593,0.2309931,23.26345,3.826163,-0.01010469,0.992791,0.1500632,25.55667,-30.76292,7.39515,1001.458
14.259806633,-0.3204842,23.74161,4.497529,0.06544367,1.006727,0.1769904,25.55667,-30.76292,7.39515,1001.46
14.279989719,1.027571,25.65421,4.131329,-0.01671285,0.9822169,0.08271465,25.55667,-30.76292,7.39515,1001.46
14.300173760,1.272672,22.06808,3.704097,0.02466827,0.9086529,0.1848409,25.20461,-31.5005,7.393929,1001.458
14.320357323,1.088847,22.72554,3.398931,0.05366737,0.9434639,0.1869471,25.20461,-31.5005,7.393929,1001.458
14.340540886,1.027571,23.14392,3.276864,0.0160195,1.025206,0.1939726,24.51081,-31.13213,8.206617,1001.458
14.360724926,0.6599199,24.04045,3.520997,0.03160285,0.9731475,0.1899999,24.51081,-31.13213,8.206617,1001.458
14.380908489,0.4760941,25.53467,3.887196,0.03651698,0.9662675,0.1582284,24.51081,-31.13213,8.206617,1001.458
14.401092053,1.272672,26.61051,3.76513,0.06843086,1.078304,0.1949465,24.84785,-32.24249,8.647365,1001.458
14.418753147,1.211397,25.83351,3.643064,0.02622024,0.9801875,0.156086,24.84785,-32.24249,8.647365,1001.458
14.438936710,-1.239613,26.90935,3.58203,0.01885443,0.9894984,0.2321887,23.4028,-31.50138,9.08057,1001.458
14.459120274,-1.545989,27.62657,4.680628,0.006567274,0.8900335,0.1786599,23.4028,-31.50138,9.08057,1001.462
14.479304314,2.191801,27.74611,4.924761,0.008888738,0.9774598,0.1609234,23.4028,-31.50138,9.08057,1001.462
14.499487400,2.559453,25.65421,3.032731,0.03187929,0.9504312,0.184684,23.78398,-31.87174,9.082177,1001.46
14.519671440,1.395223,26.73004,3.337898,-0.005593278,1.056255,0.2554422,23.78398,-31.87174,9.082177,1001.46
14.539855480,-0.1979337,27.98519,4.680628,0.02201504,0.9293267,0.1482734,23.02827,-31.50319,9.894619,1001.462
14.560038567,0.4760941,27.92542,4.558562,0.04445585,1.104634,0.2889275,23.02827,-31.50319,9.894619,1001.462
14.580222607,1.762874,28.64264,2.849632,0.07470576,0.9986238,0.177303,22.6568,-31.50214,9.89314,1001.462
14.600406647,-0.1979337,29.83802,4.436495,0.07277915,0.9175559,0.238471,22.6568,-31.50214,9.89314,1001.462
14.620589733,1.027571,32.169,5.535093,-0.007923283,0.9323555,0.1401053,22.6568,-31.50214,9.89314,1001.464
14.640773773,2.130526,33.54368,5.657159,-0.05371788,0.9698355,0.1521058,21.93161,-32.24022,10.32957,1001.464
14.660957813,2.559453,32.04946,4.253396,-0.001100893,1.083349,0.2661901,21.93161,-32.24022,10.32957,1001.466
14.681140900,1.395223,32.3483,3.643064,0.007432783,0.9399351,0.08281556,21.92997,-32.24176,10.7687,1001.466
14.698802471,-0.3817594,33.30461,5.779226,-0.01258836,0.9181332,0.1991943,21.92997,-32.24176,10.7687,1001.466
14.718985558,0.9662962,33.90229,6.511625,-0.01732555,0.8728473,0.117045,21.92997,-32.24176,10.7687,1001.466
14.739169598,1.517774,33.18507,5.657159,0.09853092,1.020882,0.2648076,21.92527,-32.24618,12.02336,1001.466
14.759353638,1.395223,33.24484,4.863728,0.05167445,0.9894252,0.1421205,21.92527,-32.24618,12.02336,1001.466
14.779536724,1.150122,34.67929,3.704097,0.1226362,0.9453127,0.1036761,21.24588,-32.24271,11.58152,1001.464
14.799720764,0.2309931,35.51605,3.704097,0.165837,1.03975,0.221776,21.24588,-32.24271,11.58152,1001.464
14.819904804,-1.239613,39.40102,3.704097,0.06754338,0.8747891,0.09700876,21.24588,-32.24271,11.58152,1001.462
14.840087891,-0.6881357,42.21015,5.107861,-0.02180878,1.003154,0.1624501,20.50934,-32.61301,12.45695,1001.462
14.860271931,1.395223,42.92738,5.168894,-0.004228961,0.9856889,0.1421286,20.50934,-32.61301,12.45695,1001.468
14.880455494,1.885425,42.509,5.413027,-0.03518365,0.9534931,0.1176941,20.13622,-32.6135,12.8946,1001.468
14.900639057,1.701599,42.44923,6.511625,-0.05349763,1.030492,0.1922329,20.13622,-32.6135,12.8946,1001.468
14.920823097,0.7824704,40.7757,6.023359,-0.0002315919,1.013657,0.1616532,20.13622,-32.6135,12.8946,1001.468
14.941006660,-0.8106862,39.22171,5.168894,0.0686977,0.9774413,0.1545096,19.40298,-32.98071,12.89177,1001.466
14.958667278,-2.281292,39.75963,5.351994,0.02775693,1.013722,0.09933025,19.40298,-32.98071,12.89177,1001.466
14.978851318,-1.79109,38.44472,6.145425,0.08445755,1.028854,0.2216798,18.63756,-32.24285,13.70408,1001.466
14.999034882,1.027571,34.85859,5.840259,0.1604126,0.9737452,0.02924901,18.63756,-32.24285,13.70408,1001.466
15.019218445,1.211397,35.9942,3.826163,0.02228352,1.066475,0.1461215,18.63756,-32.24285,13.70408,1001.465
15.039402485,0.4148189,32.58738,5.29096,-0.01779393,0.9136309,0.01031715,17.97593,-32.97956,13.70163,1001.465
15.059586048,1.027571,31.33224,4.741661,0.007027917,0.9733649,0.08250461,17.97593,-32.97956,13.70163,1001.465
15.079769611,1.82415,28.46334,3.826163,-0.04735381,0.885893,-0.02181657,17.95652,-32.24093,13.70137,1001.465
15.099953651,1.211397,26.61051,4.314429,0.007881666,1.060971,0.142141,17.95652,-32.24093,13.70137,1001.465
15.120137692,1.395223,24.21976,4.253396,0.03899233,1.041207,0.1295395,17.22163,-32.60968,14.13768,1001.465
15.140320778,2.98838,22.54623,4.253396,-0.01666684,1.058525,0.05892232,17.22163,-32.60968,14.13768,1001.466
15.160504818,2.498178,22.42669,1.8731,0.08264684,1.021145,0.1169137,17.22163,-32.60968,14.13768,1001.466
15.180688858,0.9662962,21.41062,2.300333,0.04354211,0.9840577,0.1337542,16.47563,-32.61045,14.95024,1001.466
15.200871944,-1.117062,22.48646,4.741661,0.04923089,0.9944662,0.02106376,16.47563,-32.61045,14.95024,1001.466
15.221055985,-2.158742,25.83351,3.58203,0.00136647,1.002923,0.07385276,16.8471,-32.6115,14.95172,1001.466
15.238716602,0.4148189,23.80137,3.093765,0.07321647,1.081161,0.2071607,16.8471,-32.6115,14.95172,1001.472
15.258900642,1.211397,22.606,2.910665,0.04041338,0.925019,0.0727402,16.8471,-32.6115,14.95172,1001.472
15.279084206,-0.3204842,23.44276,2.788599,0.03610605,0.9605206,0.1508164,16.47563,-32.61045,14.95024,1001.472
15.299267769,0.9662962,22.06808,3.643064,0.03137617,1.031867,0.1804575,16.47563,-32.61045,14.95024,1001.472
15.319451809,2.069251,22.18762,2.910665,0.005156989,0.9684349,0.08824882,15.72132,-32.24058,15.38629,1001.47
15.339635372,1.088847,21.41062,2.605499,0.02414468,1.030952,0.2130513,15.72132,-32.24058,15.38629,1001.47
15.359818935,1.701599,20.21525,2.849632,-0.02553961,1.032881,0.1396878,15.72132,-32.24058,15.38629,1001.472
15.380002976,1.272672,19.01987,2.971698,-0.03706779,0.9900247,0.09555031,15.04999,-32.60797,15.38371,1001.472
15.400186539,0.1697179,18.72103,3.032731,0.01044919,0.969434,0.09312669,15.04999,-32.60797,15.38371,1001.472
15.420370102,-0.5655852,16.98774,2.117233,0.03937912,1.009191,0.1337712,15.35956,-32.60884,15.38494,1001.472
15.440554142,-0.8106862,15.97167,1.995167,0.04962978,0.9992188,0.1286929,15.35956,-32.60884,15.38494,1001.47
15.460737705,-0.994512,16.03144,2.2393,0.04862303,0.9638187,0.08128144,15.35956,-32.60884,15.38494,1001.47
15.480921269,-1.423439,17.28658,2.361366,0.06918995,0.9773068,0.1199585,15.04193,-32.23711,14.94445,1001.47
15.501104832,-0.3817594,16.8682,1.995167,0.02653448,0.9944243,0.1378771,15.04193,-32.23711,14.94445,1001.47
15.518765450,1.517774,16.15097,2.178266,0.008490227,0.9717693,0.09901482,14.67852,-32.60692,15.38223,1001.47
15.538949490,1.9467,14.35791,1.628967,0.02025558,0.9548358,0.1628919,14.67852,-32.60692,15.38223,1001.47
15.579316616,-0.5043099,16.44982,1.506901,0.009498691,0.9666955,0.1723875,13.92586,-32.2355,15.37914,1001.469
15.599500656,-0.5655852,17.64519,2.849632,-0.02703074,0.9566817,0.1503465,13.92586,-32.2355,15.37914,1001.47
15.619684696,-0.0141079,18.24288,2.544466,-0.01366391,1.006649,0.2131124,13.93556,-32.60482,15.37927,1001.47
15.639867783,0.905021,16.98774,2.2393,-0.02645729,1.027039,0.2388372,13.93556,-32.60482,15.37927,1001.47
15.660051823,0.2309931,16.15097,2.849632,-0.01302611,0.9546623,0.1794812,13.93556,-32.60482,15.37927,1001.47
15.680235863,-0.9332367,17.8245,2.178266,0.05164594,0.9513007,0.1754271,13.94363,-32.97567,15.81853,1001.469
15.700418949,-1.055787,19.25895,2.605499,0.1004416,1.024249,0.1724199,13.94363,-32.97567,15.81853,1001.469
15.720602989,-0.6881357,21.70947,2.788599,0.06033394,0.990756,0.1674366,13.20876,-33.28134,15.81568,1001.469
15.740787029,-0.9332367,24.21976,3.032731,0.0322163,0.923026,0.1637045,13.20876,-33.28134,15.81568,1001.469
15.760970116,0.3535436,24.33929,3.459964,-0.02209692,0.9871974,0.1587286,13.19261,-32.60271,15.37631,1001.47
15.781154156,2.620728,21.6497,2.971698,-0.02143893,1.051938,0.1784993,13.19261,-32.60271,15.37631,1001.47
15.798814774,1.9467,18.9601,2.605499,0.01097782,0.964551,0.1465538,13.19261,-32.60271,15.37631,1001.47
15.818998814,0.7211952,19.37849,1.262768,0.03796535,0.9267823,0.1355484,12.8292,-32.97252,15.81409,1001.47
15.839182377,0.4760941,18.84057,3.276864,0.004654651,1.00932,0.1177673,12.8292,-32.97252,15.81409,1001.47
15.859365940,-0.6881357,20.51409,2.117233,0.005008641,0.9397947,0.1421799,12.08625,-32.97042,15.81114,1001.47
15.879549980,-0.9332367,20.75317,3.337898,-0.02367233,0.9582187,0.1469659,12.08625,-32.97042,15.81114,1001.472
15.899733544,-0.2592089,20.75317,3.398931,0.03703052,1.002692,0.1993352,12.08625,-32.97042,15.81114,1001.472
15.919917107,1.272672,20.33479,2.422399,0.02803425,0.9891388,0.1844826,11.76698,-32.60023,15.80978,1001.47
15.940101147,1.579049,19.13941,2.788599,0.005141094,0.9294142,0.1142388,11.76698,-32.60023,15.80978,1001.47
15.960284710,-0.6881357,18.36242,3.154798,0.05038504,0.9752577,0.200719,11.40521,-32.96849,15.80843,1001.468
15.980468273,0.1084426,18.72103,2.422399,-0.01138379,0.9785061,0.1716787,11.40521,-32.96849,15.80843,1001.468
16.000652313,2.007976,16.8682,2.727565,-0.00918333,0.9969988,0.1180304,11.40521,-32.96849,15.80843,1001.47
16.020835876,1.333948,16.80843,2.361366,0.000921726,0.9586127,0.1440181,11.03373,-32.96745,15.80695,1001.47
16.041019440,1.640324,16.50959,2.300333,0.00911951,0.9587247,0.1449815,11.03373,-32.96745,15.80695,1001.47
16.058680534,1.456498,16.15097,2.605499,-0.02208592,0.9474911,0.1073378,11.02238,-32.59967,16.24595,1001.47
16.078863621,-0.3204842,15.79236,2.0562,-0.005137937,0.9805655,0.1687908,11.02238,-32.59967,16.24595,1001.466
16.099047661,-0.4430347,16.39005,2.117233,0.02538927,1.008554,0.1770853,11.02238,-32.59967,16.24595,1001.466
16.119231701,-1.423439,16.80843,2.605499,0.03110075,0.9357303,0.1513063,11.02238,-32.59967,16.24595,1001.468
16.139414787,-0.5655852,19.67733,2.788599,0.04952544,0.9674295,0.1582323,11.02238,-32.59967,16.24595,1001.468
16.159598827,1.150122,21.17155,3.704097,0.01347064,0.9587343,0.1016691,9.554274,-33.27255,16.24027,1001.466
16.179782867,1.517774,21.6497,3.337898,0.02840673,1.03814,0.1786396,9.554274,-33.27255,16.24027,1001.466
16.199965954,0.8437457,19.61756,2.666532,-0.01282444,0.9780149,0.1702114,9.554274,-33.27255,16.24027,1001.466
16.220149994,-0.6268604,19.49802,3.093765,-0.07087952,0.9530327,0.1595839,9.904902,-32.59939,17.05704,1001.466
16.240334034,-0.07538315,19.07964,4.314429,-0.04446509,0.9232574,0.1234349,9.904902,-32.59939,17.05704,1001.466
16.260517120,-0.3817594,17.16704,4.192362,0.03107277,0.937296,0.1888045,9.916252,-32.96716,16.61804,1001.466
16.280701160,2.253077,19.55779,3.58203,0.005461949,0.9035826,0.08112581,9.916252,-32.96716,16.61804,1001.466
16.300885201,1.9467,17.52565,4.375462,0.08067773,0.9839651,0.1497552,8.83603,-31.85492,16.23707,1001.466
16.321068287,1.456498,19.7371,2.178266,0.0789379,0.9288968,0.1301776,8.83603,-31.85492,16.23707,1001.466
16.338729858,-0.7494109,20.6934,2.300333,0.06114813,0.9639098,0.1396553,8.83603,-31.85492,16.23707,1001.466
16.358912945,-1.055787,22.12785,3.032731,0.02919053,0.9749542,0.101967,8.845736,-32.22423,16.23719,1001.466
16.379096985,0.4148189,23.38299,2.2393,0.1309173,0.9377685,0.1439013,8.845736,-32.22423,16.23719,1001.466
16.399281025,2.007976,22.606,1.8731,0.02136045,0.8648656,0.1002863,8.50176,-33.26957,16.23608,1001.466
16.419464588,1.701599,22.30716,2.300333,-0.06394216,1.016787,0.1905172,8.50176,-33.26957,16.23608,1001.465
16.439648152,0.7824704,22.90484,2.605499,0.008011281,1.00974,0.1781075,8.50176,-33.26957,16.23608,1001.465
16.459831715,-0.0141079,21.88877,2.422399,0.002816684,0.9606817,0.1824966,8.123839,-32.95921,15.79537,1001.466
16.480015278,-0.7494109,21.58993,3.154798,-0.01803302,1.048677,0.219303,8.123839,-32.95921,15.79537,1001.466
16.500199318,-0.7494109,23.98068,3.704097,-0.00413119,0.8999364,0.04360054,8.11249,-32.59145,16.23437,1001.466
16.520382881,0.7824704,22.24739,2.544466,0.05121587,1.065817,0.2068893,8.11249,-32.59145,16.23437,1001.466
16.540566445,4.39771,22.30716,3.215831,-0.1028882,1.010167,0.01819169,8.11249,-32.59145,16.23437,1001.466
16.560750485,2.253077,21.88877,2.605499,0.08797646,0.9797744,0.09467729,7.760452,-33.26593,15.79399,1001.466
16.580934048,0.7211952,22.42669,0.9576018,0.01614044,1.015814,0.1641048,7.760452,-33.26593,15.79399,1001.47
16.601117611,-1.117062,24.87721,3.643064,-0.004323347,0.9537532,0.137604,7.369538,-32.58934,16.23141,1001.47
16.618778706,-1.055787,26.25189,4.009263,0.08876161,0.9930819,0.170847,7.369538,-32.58934,16.23141,1001.468
16.638961792,-0.3817594,28.22426,3.459964,0.05042604,0.8945081,0.08623266,7.369538,-32.58934,16.23141,1001.468
16.659145832,2.498178,27.86565,4.741661,-0.04813975,1.026255,0.1877619,7.015856,-33.26537,16.23017,1001.46
16.679329872,2.98838,26.31166,4.314429,0.09717444,0.977038,0.09120353,7.015856,-33.26537,16.23017,1001.46
16.699512959,0.6599199,28.58287,2.788599,0.0468046,0.9138867,0.1299277,5.882226,-32.58646,16.60189,1001.462
16.719696999,0.04716736,29.59894,4.314429,0.0133699,0.9659191,0.158742,5.882226,-32.58646,16.60189,1001.462
16.739881039,-0.8106862,31.27247,5.657159,0.07723745,0.9505584,0.09314166,5.882226,-32.58646,16.60189,1001.464
16.760064125,-0.7494109,32.82645,5.840259,0.09009667,1.041943,0.1805707,6.247049,-32.21533,15.78771,1001.464
16.780248165,0.5373694,33.00576,3.032731,0.009023849,0.9663295,0.1597297,6.247049,-32.21533,15.78771,1001.464
16.800432205,1.027571,31.09316,2.483432,0.05532841,1.005593,0.1784425,5.903073,-33.26067,15.7866,1001.464
16.820615292,-0.3204842,32.52761,2.300333,-0.01619774,0.9771858,0.1998817,5.903073,-33.26067,15.7866,1001.466
16.840799332,-0.2592089,31.87016,3.398931,0.06529281,0.9401711,0.145505,4.861908,-33.62547,15.34341,1001.466
16.860983372,-0.8719615,31.2127,4.192362,0.05587233,0.9603891,0.1936045,4.861908,-33.62547,15.34341,1001.467
16.878643990,0.3535436,31.81039,4.314429,-0.04019232,0.9680695,0.1549705,4.861908,-33.62547,15.34341,1001.467
16.898828030,2.804554,29.83802,3.154798,0.01927438,1.036608,0.124125,4.490433,-33.62441,15.34193,1001.467
16.919011116,2.743279,28.10472,1.934133,0.04985959,1.059695,0.1381615,4.490433,-33.62441,15.34193,1001.467
16.939195156,1.027571,28.88172,1.323801,-0.0477702,0.9570467,0.1314073,3.736131,-33.25454,15.77798,1001.467
16.959379196,-0.7494109,30.01732,3.826163,0.0377651,0.9431923,0.1417125,3.736131,-33.25454,15.77798,1001.467
16.979562283,-2.710219,29.89779,5.962326,0.02812707,0.9426228,0.1358763,3.736131,-33.25454,15.77798,1001.467
16.999746323,-0.4430347,31.33224,7.427123,0.01279743,0.9343191,0.1196771,3.719981,-32.57592,15.33861,1001.467
17.019929886,1.885425,29.83802,4.192362,-0.1104532,1.152971,0.2156638,3.719981,-32.57592,15.33861,1001.466
17.040113449,2.314352,26.78981,2.117233,0.03655489,1.00323,0.1443623,3.346862,-32.57642,15.77626,1001.466
17.060297489,1.701599,24.39906,0.5914025,0.02819175,0.9373046,0.1347978,3.346862,-32.57642,15.77626,1001.464
17.080481052,0.1084426,21.70947,1.751034,0.01200124,0.958774,0.1931503,3.346862,-32.57642,15.77626,1001.464
17.100664616,-1.055787,22.42669,3.093765,0.0148475,0.9240025,0.1369871,2.605555,-32.57277,15.33417,1001.462
17.120848656,-0.8719615,21.05201,1.751034,-0.03371178,0.9517171,0.1035458,2.605555,-32.57277,15.33417,1001.462
17.141032219,1.027571,21.70947,2.2393,0.04592511,0.9073232,0.106443,2.307341,-32.93966,14.89394,1001.462
17.158692837,2.436902,22.30716,3.154798,0.03605879,1.004985,0.1132562,2.307341,-32.93966,14.89394,1001.462
17.178876877,2.069251,23.74161,2.2393,-0.0254447,1.064861,0.139834,2.307341,-32.93966,14.89394,1001.464
17.199059963,-1.79109,22.606,1.567934,-0.02234564,0.9290352,0.1113522,1.935865,-32.93861,14.89246,1001.464
17.219244003,-0.6881357,24.6979,4.802694,0.07756843,0.8830093,0.1137007,1.935865,-32.93861,14.89246,1001.466
17.239428043,1.762874,26.13235,5.779226,-0.07052928,1.085305,0.06293751,1.194324,-32.93518,14.51311,1001.466
17.259611130,3.233481,26.19212,3.337898,-0.03224084,1.029157,0.1143214,1.194324,-32.93518,14.51311,1001.458
17.279795170,3.049655,23.50253,3.76513,0.03103123,0.9822335,0.1035681,1.194324,-32.93518,14.51311,1001.458
17.299979210,-0.6881357,22.54623,3.643064,-0.05410794,1.001581,0.1751177,1.565799,-32.93624,14.51458,1001.458
17.320162296,-2.83277,21.41062,4.192362,0.0523795,1.008715,0.2500369,1.565799,-32.93624,14.51458,1001.458
17.340346336,-0.0141079,24.39906,3.704097,-0.01882503,0.878157,0.06800698,1.16685,-31.8257,14.07359,1001.458
17.360530377,1.333948,24.10022,4.802694,0.0443892,1.073052,0.1510851,1.16685,-31.8257,14.07359,1001.458
17.380713463,1.456498,24.93698,2.788599,0.006579776,1.009035,0.149387,0.7953739,-31.82465,14.07211,1001.458
17.400897503,1.640324,25.11629,3.887196,0.02060777,0.9267467,0.1131902,0.8244915,-32.93259,14.0725,1001.459
17.421081543,0.4760941,24.39906,4.192362,-0.01492008,1.030997,0.1989985,0.8244915,-32.93259,14.0725,1001.459
17.438742161,0.1084426,22.48646,2.2393,-0.03103649,1.007311,0.2180168,-0.3012857,-32.56167,14.50706,1001.459
17.458926201,1.579049,23.38299,2.361366,-0.002763936,0.86538,0.1100636,-0.3012857,-32.56167,14.50706,1001.459
17.479109287,0.5986447,22.48646,4.985794,0.04240304,1.036402,0.2282165,0.0734787,-32.55963,13.63028,1001.453
17.499293327,0.9662962,25.05652,3.643064,-0.03551244,0.9806071,0.1192044,0.0734787,-32.55963,13.63028,1001.453
17.519477368,-0.1366584,24.04045,3.76513,0.0553305,0.9661201,0.1523588,0.0734787,-32.55963,13.63028,1001.453
17.539660454,-0.5043099,23.08415,1.812067,0.01408642,0.9851885,0.2199457,-0.5867128,-33.23191,12.81228,1001.453
17.559844494,-0.994512,24.99675,2.849632,-0.008724336,0.9187021,0.1476217,-0.5867128,-33.23191,12.81228,1001.453
17.580028057,-0.2592089,26.07259,5.718193,0.05621455,0.9730603,0.1378973,-1.329664,-33.22981,12.80932,1001.453
17.600211620,1.395223,28.16449,5.29096,0.01691094,0.9931129,0.1091566,-1.329664,-33.22981,12.80932,1001.453
17.620395661,3.11093,25.65421,5.413027,-0.02009468,1.060944,0.1519133,-1.329664,-33.22981,12.80932,1001.453
17.640579224,3.662407,23.08415,1.751034,-0.009828682,1.088976,0.1743494,-0.9759827,-32.55378,12.81056,1001.453
17.660762787,1.456498,22.36692,0.5914025,0.01635171,0.9974054,0.2128854,-0.9759827,-32.55378,12.81056,1001.453
17.680946827,-0.5043099,22.72554,1.445868,0.01322523,0.9375831,0.1820242,-1.715646,-32.54859,11.92935,1001.452
17.701130390,-2.281292,22.42669,3.093765,0.00895374,0.9711987,0.2060519,-1.715646,-32.54859,11.92935,1001.452
17.718791008,-3.200421,23.14392,3.58203,-0.02743855,0.9105769,0.1572201,-1.715646,-32.54859,11.92935,1001.452
17.738975048,-0.8106862,23.50253,5.779226,-0.002441044,0.9180389,0.1261895,-1.355519,-32.18187,12.36983,1001.452
17.759158611,6.297244,22.90484,7.060924,-0.03571429,0.9591791,0.03216815,-1.355519,-32.18187,12.36983,1001.45
17.779342175,4.704087,22.06808,5.47406,-0.02681004,1.136312,0.2127784,-2.096827,-32.17823,11.92774,1001.45
17.799526215,2.682003,18.54172,2.727565,-0.03008901,1.087153,0.2789592,-2.096827,-32.17823,11.92774,1001.454
17.819709301,-2.403843,21.11178,1.812067,-0.0306633,0.8958498,0.2693349,-2.096827,-32.17823,11.92774,1001.454
17.839893341,-1.79109,20.6934,4.802694,-0.05303965,0.9530802,0.181455,-2.85113,-31.80835,12.36378,1001.455
17.860077381,-0.994512,20.75317,7.793322,-0.02629502,0.9359536,0.1406901,-2.85113,-31.80835,12.36378,1001.455
17.880260468,4.336435,20.93247,7.488156,0.0445912,1.211491,0.3606241,-2.095182,-32.17668,11.48861,1001.448
17.900444508,0.5373694,24.10022,4.680628,0.1817657,0.959042,0.2245345,-2.095182,-32.17668,11.48861,1001.448
17.920628548,-1.484714,23.74161,2.849632,0.02541758,0.9219071,0.4128247,-2.095182,-32.17668,11.48861,1001.448
17.940811634,0.2922684,22.72554,5.351994,-0.02727332,0.9347951,0.2559896,-2.476365,-31.80632,11.487,1001.448
17.960995674,6.235968,20.57386,5.351994,0.04169412,1.249819,0.4489725,-2.476365,-31.80632,11.487,1001.449
17.978656292,5.316839,20.27502,5.046827,0.1722609,1.104798,0.3169651,-3.607151,-31.06167,10.66678,1001.449
17.998840332,1.088847,20.03594,2.788599,0.007860926,0.9016424,0.2314392,-3.607151,-31.06167,10.66678,1001.453
18.019024372,-5.528881,22.606,0.3472696,0.1814189,1.102637,0.4507203,-3.607151,-31.06167,10.66678,1001.453
18.039207459,-9.695599,20.03594,4.924761,0.01470566,0.8552843,0.1769871,-3.597445,-31.43098,10.66691,1001.451
18.059391499,6.848721,16.68889,4.680628,-0.2027192,1.078464,0.5549353,-3.597445,-31.43098,10.66691,1001.451
18.079575539,13.03752,20.15548,5.29096,0.1504739,1.158288,-0.02790737,-3.594157,-31.42789,9.788651,1001.447
18.099758625,10.09631,12.74415,1.506901,0.178611,1.058371,0.3174967,-3.594157,-31.42789,9.788651,1001.447
18.119942665,-2.83277,20.93247,-1.300627,-0.0193741,0.8852283,-0.0106793,-3.605507,-31.06012,10.22765,1001.447
18.140126705,-14.22997,20.45432,0.6524357,0.004485769,1.060213,0.2623179,-3.605507,-31.06012,10.22765,1001.447
18.160309792,-11.35003,22.84507,4.314429,0.1058519,0.8183629,0.07880522,-3.605507,-31.06012,10.22765,1001.451
18.180493832,9.667382,22.24739,3.826163,-0.3975976,1.048617,0.1463844,-3.594157,-31.42789,9.788651,1001.451
18.200677395,22.84156,17.22681,5.901292,0.3790802,1.202797,-0.2166443,-3.594157,-31.42789,9.788651,1001.451
18.220860958,11.50564,15.49352,1.201735,0.2573704,0.7667964,0.3748667,-4.654969,-31.05428,9.407935,1001.451
18.241044998,-7.428414,18.9601,-1.605793,-0.04285627,0.7548297,-0.08864655,-4.654969,-31.05428,9.407935,1001.449
18.258705616,-14.78144,20.87271,4.009263,-0.021137,0.9500993,0.0412122,-4.654969,-31.05428,9.407935,1001.449
18.278889179,-3.016595,22.84507,6.389558,-0.2500187,1.20107,0.5311556,-4.643619,-31.42205,8.968934,1001.445
18.299073219,1.456498,25.59444,0.7745022,0.2183969,0.6844309,0.1207553,-4.643619,-31.42205,8.968934,1001.445
18.319256783,7.277647,20.03594,5.046827,0.1339803,0.6887574,-0.05080029,-5.40598,-30.68132,8.965719,1001.447
18.339440346,0.3535436,20.99224,3.093765,-0.03679105,1.085301,0.1626382,-5.40598,-30.68132,8.965719,1001.447
18.359624386,-6.938212,25.59444,2.2393,0.04242143,0.9596015,0.008705649,-5.40598,-30.68132,8.965719,1001.447
18.379807472,-1.117062,23.5623,6.267492,-0.154211,0.8638135,0.1881088,-4.659741,-30.68033,8.090416,1001.447
18.399991512,6.787446,24.27952,4.375462,0.1444713,0.8233011,-0.3123695,-4.659741,-30.68033,8.090416,1001.447
18.420175552,7.767849,16.50959,2.178266,0.02565955,1.106206,0.1512822,-5.402692,-30.67823,8.087459,1001.449
18.440358639,1.885425,13.043,-0.4461623,0.1739523,0.9682975,0.15904,-5.402692,-30.67823,8.087459,1001.449
18.460542679,-7.122037,14.65676,1.934133,-0.1897259,0.8124874,0.03387026,-5.402692,-30.67823,8.087459,1001.448
18.480726719,-2.95532,15.37398,2.849632,-0.1341854,0.9633366,0.1496624,-5.401282,-30.6769,7.711062,1001.448
18.500909805,0.2922684,14.23837,1.628967,0.1600176,0.9257866,0.07647251,-5.401282,-30.6769,7.711062,1001.442
18.521093845,5.868317,10.89132,2.910665,-0.04966201,0.9155917,0.05808823,-5.391578,-31.04622,7.71119,1001.442
18.538754463,4.887912,12.92346,3.459964,-0.009158445,0.9168557,0.04005009,-5.391578,-31.04622,7.71119,1001.442
18.558938503,5.071738,9.695949,2.788599,0.03359533,1.165995,0.2414992,-5.391578,-31.04622,7.71119,1001.442
18.579122543,2.130526,8.67988,2.300333,0.06633235,1.21131,0.2160723,-5.008752,-31.41504,7.273667,1001.446
18.599305630,-3.384247,9.337336,-0.4461623,-0.007197265,0.9910864,0.179707,-5.008752,-31.41504,7.273667,1001.446
18.619489670,-1.239613,8.381036,2.2393,-0.001943739,0.9589382,0.009244232,-5.771115,-30.6743,7.270453,1001.444
18.639673710,5.071738,6.827048,1.201735,0.0718775,1.232144,0.1756032,-5.771115,-30.6743,7.270453,1001.444
18.659856796,2.498178,8.20173,0.7134689,0.1123426,1.077461,0.1500994,-6.523772,-30.30289,7.267367,1001.444
18.680040836,-0.3817594,9.755717,-0.8733948,0.04058151,0.7938029,-0.03398658,-6.523772,-30.30289,7.267367,1001.444
18.700224877,-8.286267,10.59248,0.16417,-0.0524082,0.8618928,0.1431554,-6.523772,-30.30289,7.267367,1001.444
18.720407963,-7.122037,10.47294,2.666532,-0.04021891,1.050012,0.1492935,-6.152297,-30.30394,7.268846,1001.444
18.740592003,-0.5655852,11.01086,0.4083028,0.1069627,0.8468484,0.04190019,-6.152297,-30.30394,7.268846,1001.444
18.760775566,4.336435,9.397105,-0.2020294,0.1294352,0.9783463,0.2517557,-6.150653,-30.30239,6.829716,1001.444
18.780959130,2.927104,8.620111,0.2862364,0.06254964,1.20292,0.3234475,-6.150653,-30.30239,6.829716,1001.444
18.801143170,2.743279,8.20173,2.117233,-0.05431896,1.179562,0.1100318,-6.150653,-30.30239,6.829716,1001.444
18.818803787,-0.8106862,11.36947,2.361366,-0.01877492,0.7981604,-0.122372,-6.531833,-29.93203,6.828109,1001.444
18.838987351,-0.8106862,10.89132,1.812067,-0.03617515,0.8371536,0.07257339,-6.531833,-29.93203,6.828109,1001.444
18.859170914,-1.423439,9.337336,2.422399,-0.09354606,1.030873,0.2404713,-6.137893,-30.66884,6.014317,1001.444
18.879354954,-2.403843,9.994792,2.117233,0.02441478,1.088942,0.1801375,-6.137893,-30.66884,6.014317,1001.444
18.899538517,-0.6881357,10.95109,2.849632,-0.03995607,0.9517272,-0.004467115,-6.137893,-30.66884,6.014317,1001.448
18.919722080,2.314352,9.456874,2.605499,0.0880799,0.9321979,0.05529518,-6.520484,-30.2998,6.389107,1001.448
18.939905643,3.233481,8.321267,1.812067,0.1435415,1.089122,0.1935906,-6.520484,-30.2998,6.389107,1001.448
18.960089684,1.456498,4.85468,-0.9954612,0.03296199,0.9814447,0.1371242,-6.489957,-31.40642,6.013096,1001.448
18.980273724,-2.95532,3.300692,0.4083028,-0.01279842,0.9753178,0.1978934,-6.489957,-31.40642,6.013096,1001.448
19.000456810,-4.732303,9.935023,1.445868,0.02716423,0.9794794,0.2777173,-6.489957,-31.40642,6.013096,1001.448
19.020640850,1.579049,12.86369,1.628967,0.04726924,0.9946403,0.1470961,-6.51743,-30.29693,5.573579,1001.45
19.040824413,5.316839,12.0867,2.361366,-0.02890061,1.071746,0.1244046,-6.51743,-30.29693,5.573579,1001.45
19.061007977,-0.4430347,14.23837,1.018635,0.05417884,0.9806863,0.1964416,-6.900254,-29.92811,6.011103,1001.45
19.078668594,-2.648944,11.19017,0.4083028,-0.06052286,0.8144634,0.1743433,-6.900254,-29.92811,6.011103,1001.45
19.098852634,-1.607265,10.05456,2.605499,-0.06362201,0.9512509,0.1546721,-6.900254,-29.92811,6.011103,1001.452
19.119036675,0.5373694,11.3097,1.018635,0.09863205,0.9740843,0.1957591,-7.578006,-29.92309,5.130132,1001.452
19.159403801,-1.484714,9.994792,1.323801,0.03815473,0.7537985,0.03869984,-6.888906,-30.29588,5.572101,1001.452
19.179587841,-3.506797,10.89132,1.506901,-0.00695386,0.810934,0.2194474,-6.888906,-30.29588,5.572101,1001.453
19.199770927,0.9662962,9.217798,2.666532,0.002417375,1.034217,0.1445391,-6.888906,-30.29588,5.572101,1001.453
19.219954968,2.865829,8.799417,3.093765,0.03019045,1.013667,0.01076682,-6.888906,-30.29588,5.572101,1001.453
19.240139008,1.150122,3.300692,2.300333,0.05075005,1.065227,0.1679514,-6.888906,-30.29588,5.572101,1001.453
19.260322094,-1.729815,2.583467,-0.4461623,-0.06140798,0.732021,-0.01510956,-6.515786,-30.29539,5.134449,1001.453
19.280506134,-1.913641,-0.9428898,1.445868,0.02603737,0.9148647,0.1956668,-6.515786,-30.29539,5.134449,1001.453
19.300690174,4.458986,0.6708667,1.079668,0.1235753,0.9103742,-0.03618056,-7.196826,-30.29346,5.131739,1001.453
19.320873261,1.211397,3.300692,-0.0189297,0.07384577,0.9114732,0.1205951,-7.196826,-30.29346,5.131739,1001.453
19.341057301,-3.874449,1.686935,1.934133,-0.04129496,0.8580555,0.2535183,-7.196826,-30.29346,5.131739,1001.453
19.358717918,-5.038679,2.88231,-0.8733948,-0.06040839,0.7281525,0.03444426,-7.21462,-29.61638,5.131503,1001.453
19.378901959,0.1084426,1.089248,1.140701,0.07368148,1.083622,0.155144,-7.21462,-29.61638,5.131503,1001.453
19.399085522,7.522748,-1.42104,0.16417,0.1454332,0.9381602,-0.06923721,-7.568301,-30.29241,5.13026,1001.453
19.419269085,4.887912,-4.28994,0.4083028,0.01182604,1.093284,0.1632114,-7.568301,-30.29241,5.13026,1001.455
19.439453125,0.9662962,-2.85549,-0.6292619,-0.03195058,0.8103237,-0.09826916,-7.568301,-30.29241,5.13026,1001.455
19.459636688,-3.874449,-2.616415,-0.1409961,0.08202352,1.308326,0.2773329,-6.888906,-30.29588,5.572101,1001.455
19.479820252,-2.403843,2.224854,-1.666827,0.04190436,1.316434,0.2303534,-6.888906,-30.29588,5.572101,1001.455
19.500003815,-0.07538315,-1.062427,-1.849926,-0.01036646,1.054427,0.1396053,-6.519074,-30.29848,6.01271,1001.455
19.520187855,-0.0141079,-2.37734,-1.056494,0.0435522,0.9433072,0.1387867,-6.519074,-30.29848,6.01271,1001.455
19.540371418,1.027571,-1.181965,-0.6292619,-0.02022308,1.072629,0.09716044,-6.519074,-30.29848,6.01271,1001.455
19.560554981,0.7824704,-0.4049709,0.1031367,-0.01089369,0.9414573,-0.0003337506,-6.887261,-30.29433,5.132971,1001.455
19.580739021,-1.607265,0.7306354,-0.8733948,0.0269644,1.077156,0.1998506,-6.887261,-30.29433,5.132971,1001.455
19.600922585,-0.9332367,-0.5245085,-0.07996292,-0.08700235,1.050663,0.1114213,-6.877555,-30.66365,5.1331,1001.457
19.621106148,-1.79109,1.208785,-0.3240958,0.02146086,0.9369453,0.06327231,-6.877555,-30.66365,5.1331,1001.457
19.638766766,-1.300888,-0.2256647,0.2862364,0.002966105,1.068702,0.1369488,-6.877555,-30.66365,5.1331,1001.459
19.658950806,-2.158742,-0.5245085,0.04210352,0.04619969,0.9240992,0.1252649,-7.19847,-30.29501,5.570868,1001.459
19.679134846,-2.465118,-2.556646,-0.9954612,0.02668166,0.9011217,0.2143707,-7.19847,-30.29501,5.570868,1001.46
19.699317932,-0.1366584,-3.991096,-0.934428,0.04280356,0.9233218,0.2473877,-6.905055,-29.61726,5.132735,1001.46
19.719501972,0.6599199,-2.735953,-1.36166,0.08417805,0.9304397,0.3243485,-6.905055,-29.61726,5.132735,1001.46
19.739686012,1.456498,-0.2854334,-2.765424,0.1161029,1.000826,0.4079279,-6.905055,-29.61726,5.132735,1001.46
19.759869099,1.640324,-0.2854334,-1.178561,0.02173059,1.027764,0.3842702,-7.569945,-30.29395,5.56939,1001.462
19.780053139,3.968784,-2.437109,-1.483727,0.03774434,0.8641242,0.1995112,-7.569945,-30.29395,5.56939,1001.462
19.800237179,2.191801,-2.616415,-2.765424,0.05387211,0.7678717,0.1576825,-6.887261,-30.29433,5.132971,1001.464
19.820420265,-0.7494109,-4.170403,-4.474355,-0.009565451,0.787647,0.2185037,-6.887261,-30.29433,5.132971,1001.464
19.840604305,-6.080358,-3.034796,-0.934428,-0.01085129,0.933328,0.2330669,-6.507724,-30.66624,5.573708,1001.464
19.860788346,-2.036191,2.523698,0.04210352,-0.02596633,0.9504157,0.05095728,-6.507724,-30.66624,5.573708,1001.464
19.880971432,-1.545989,-1.002658,1.201735,-0.1126512,0.936457,0.2050563,-6.507724,-30.66624,5.573708,1001.466
19.898632050,4.949188,1.985779,-2.643358,0.002562938,1.145797,-0.06443146,-6.147599,-30.29953,6.014188,1001.466
19.918816090,-0.7494109,-0.6440459,1.018635,-0.07417797,1.030897,-0.07486482,-6.147599,-30.29953,6.014188,1001.466
19.939000130,-5.345055,2.583467,-0.385129,0.06043169,0.9436783,0.1266046,-6.896966,-29.92502,5.132843,1001.466
19.959183216,-3.077871,-1.839421,-0.8123615,-0.03830833,0.9344342,0.03168222,-6.896966,-29.92502,5.132843,1001.467
19.979367256,-3.384247,4.675373,-1.54476,0.1072419,0.7856843,-0.04397684,-6.896966,-29.92502,5.132843,1001.467
19.999551296,0.5373694,9.337336,1.628967,0.06514495,1.032449,0.1234888,-6.896966,-29.92502,5.132843,1001.467
20.019734383,2.804554,11.19017,0.04210352,0.0007267806,0.977401,0.008145956,-6.896966,-29.92502,5.132843,1001.467
20.039918423,2.253077,9.337336,-0.0189297,-0.003127962,0.9775995,-0.01763355,-6.531936,-29.61676,4.695084,1001.469
20.060102463,0.1084426,6.050055,0.8355353,-0.1257773,0.8695475,-0.005481003,-6.531936,-29.61676,4.695084,1001.469
20.080285549,-1.300888,5.870748,-0.0189297,0.01994427,0.7445508,0.01567397,-6.531936,-29.61676,4.695084,1001.465
20.100469589,-0.3204842,8.918955,0.4083028,-0.02164046,0.9096602,0.1605995,-6.531936,-29.61676,4.695084,1001.465
20.120653152,0.2922684,11.42924,1.262768,0.1006203,1.046677,0.3052151,-6.531936,-29.61676,4.695084,1001.465
20.140836716,2.191801,11.60855,1.567934,-0.08952837,1.056643,0.286228,-6.885617,-30.29279,4.693841,1001.465
20.161020756,2.253077,10.53271,1.812067,-0.03626737,1.041333,0.199721,-6.885617,-30.29279,4.693841,1001.467
20.178681374,1.150122,9.63618,1.934133,-0.0775207,0.8266081,0.04809604,-6.885617,-30.29279,4.693841,1001.467
20.198864937,0.1084426,7.484505,1.384834,-0.03445921,0.8941255,0.09559484,-6.893914,-29.92215,4.317315,1001.467
20.219048977,-0.9332367,7.902886,1.995167,0.01045998,1.125031,0.2334236,-6.893914,-29.92215,4.317315,1001.467
20.239232540,-4.609752,10.95109,0.7134689,0.1145957,0.9310548,0.1613095,-7.201835,-29.91973,3.876953,1001.469
20.259416103,-1.545989,7.783349,1.628967,0.001357507,0.8813057,0.2203413,-7.201835,-29.91973,3.876953,1001.469
20.279600143,3.662407,5.273061,1.018635,0.04797857,1.093576,0.2366387,-7.201835,-29.91973,3.876953,1001.469
20.299783230,1.579049,2.463929,-1.178561,0.02174194,0.9919648,0.1344293,-6.520795,-29.92166,3.879663,1001.469
20.319967270,-5.099954,4.316761,1.323801,0.002168114,1.010808,0.3547682,-6.520795,-29.92166,3.879663,1001.469
20.340151310,-3.384247,8.978724,2.361366,0.0324604,1.179036,0.2928505,-6.890626,-29.91906,3.439054,1001.469
20.360334396,1.088847,9.63618,3.276864,0.004250695,1.788339,0.6655118,-6.890626,-29.91906,3.439054,1001.469
20.380518437,1.027571,8.440804,0.8965686,-0.06691507,1.419232,0.3040759,-6.520795,-29.92166,3.879663,1001.469
20.400702477,-3.506797,8.978724,5.046827,-0.1119241,1.11421,0.2620977,-6.520795,-29.92166,3.879663,1001.469
20.420885563,-0.6268604,10.53271,2.422399,0.1793207,1.436802,0.3663453,-6.520795,-29.92166,3.879663,1001.469
20.441069603,0.04716736,4.974217,3.276864,-0.1538784,0.6397468,0.06348675,-7.20828,-29.61042,3.437715,1001.473
20.458730221,-2.83277,0.4317916,2.544466,0.03056165,1.096392,0.3174934,-7.20828,-29.61042,3.437715,1001.473
20.478914261,2.130526,-1.42104,0.469336,0.1498785,1.320113,0.3139606,-7.188842,-30.28596,2.998821,1001.473
20.499098301,4.949188,-4.110634,2.117233,0.1217834,0.5802667,-0.02470754,-7.188842,-30.28596,2.998821,1001.473
20.519281387,-0.994512,-0.9428898,0.7134689,0.01504762,1.415219,0.6357284,-7.188842,-30.28596,2.998821,1001.473
20.539465428,-4.11955,-1.89919,-1.788893,0.1585045,0.9251263,0.3849576,-7.568612,-29.91426,2.620816,1001.474
20.559648514,-2.097466,2.643235,-0.4461623,0.1097006,0.9366024,0.18089,-7.568612,-29.91426,2.620816,1001.474
20.579832554,-0.6268604,5.751211,-0.385129,0.06049592,0.6201857,0.1090107,-7.591104,-29.2416,3.875238,1001.473
20.600016594,0.7211952,6.946586,3.215831,-0.1726464,0.5160012,0.1033982,-7.591104,-29.2416,3.875238,1001.473
20.620199680,-2.097466,2.463929,3.093765,-0.01213773,1.235604,0.3850273,-7.591104,-29.2416,3.875238,1001.471
20.640383721,-2.281292,-1.42104,-0.2630626,0.09796114,1.02915,0.2119341,-7.21634,-29.23956,2.998456,1001.471
20.660567761,2.436902,-1.779652,2.605499,-0.1921639,0.6555271,0.02736126,-7.21634,-29.23956,2.998456,1001.469
20.680750847,-3.813174,-0.9428898,0.2252032,0.0403732,1.552152,0.7415576,-7.579755,-29.60937,3.436237,1001.469
20.700934887,2.375627,-7.278378,0.8965686,-0.1173323,1.359922,0.3462823,-7.579755,-29.60937,3.436237,1001.471
20.721118927,-1.117062,0.3122541,-0.6902951,-0.1192062,0.9186419,0.281594,-7.579755,-29.60937,3.436237,1001.471
20.738779545,-2.220017,-4.648553,2.849632,-0.02355584,0.987134,0.2117675,-7.597522,-28.8692,2.996849,1001.469
20.758963108,3.662407,-2.735953,-0.4461623,-0.03552826,0.661163,0.2306361,-7.597522,-28.8692,2.996849,1001.469
20.779146671,6.481069,-2.37734,-0.5682287,0.01454993,0.9430322,0.4161783,-7.959291,-29.23746,2.995499,1001.469
20.799330712,8.380602,-1.540577,2.0562,0.2652391,0.9158446,0.2590779,-7.959291,-29.23746,2.995499,1001.469
20.819514275,-5.161229,3.599535,-1.72786,0.09279851,0.7748091,0.3957035,-7.959291,-29.23746,2.995499,1001.469
20.839697838,1.517774,-6.083003,0.1031367,-0.2753109,1.30574,0.1503206,-7.579755,-29.60937,3.436237,1001.469
20.859881401,4.520261,-5.425547,-0.0189297,0.0004304031,0.8717749,0.5447074,-7.579755,-29.60937,3.436237,1001.469
20.880065441,-10.4309,-10.98404,-4.779521,0.2358484,0.7144293,0.2488091,-7.198546,-29.91664,2.998692,1001.469
20.900249005,-2.158742,-5.72439,1.323801,0.1168721,1.729352,0.6257386,-7.198546,-29.91664,2.998692,1001.467
20.920432568,-6.938212,-3.214103,-4.718488,0.2407464,1.30187,0.4326799,-6.897071,-29.60975,2.999817,1001.467
20.940616608,-9.02157,-6.800228,-10.45561,0.04278323,1.638174,0.426002,-6.897071,-29.60975,2.999817,1001.465
20.960800171,1.885425,-9.011672,1.262768,0.1172645,1.180464,0.5686491,-6.897071,-29.60975,2.999817,1001.465
20.980983734,2.253077,-6.501384,5.046827,-0.279955,1.373512,0.003259754,-7.206635,-29.60888,2.998585,1001.465
20.998644352,-6.57056,-10.92427,-5.878119,-0.1788747,0.7107077,0.1505671,-7.206635,-29.60888,2.998585,1001.465
21.018828392,-2.894045,-24.55155,-8.319448,0.3349901,1.45004,0.1926673,-6.5353,-29.24149,3.001167,1001.465
21.039012432,-6.264184,-20.60681,-0.934428,-0.2619175,0.6877977,-0.3504621,-6.5353,-29.24149,3.001167,1001.465
21.059195519,-7.857341,-20.06889,-3.497823,0.08235773,0.7682022,0.02042972,-6.5353,-29.24149,3.001167,1001.465
21.079379559,3.784958,-20.96542,-5.572953,0.1272533,0.4866052,-0.001753348,-6.898715,-29.6113,3.438947,1001.465
21.099562645,4.458986,-16.18392,-2.155092,-0.1984769,1.174943,0.115991,-6.898715,-29.6113,3.438947,1001.463
21.119746685,9.238456,-6.262309,-1.056494,-0.1901202,0.5383456,-0.5632443,-6.910064,-29.24353,3.877949,1001.463
21.139930725,0.4148189,-9.071441,-0.934428,0.110038,1.109399,0.1020762,-6.910064,-29.24353,3.877949,1001.465
21.160114765,-10.1858,-14.6897,-4.413321,-0.011446,0.7945265,-0.3312004,-6.910064,-29.24353,3.877949,1001.465
21.180297852,-4.303376,-12.17942,-1.605793,0.08774775,0.9658209,-0.2574008,-6.159053,-29.61649,4.320165,1001.465
21.200481892,-6.815661,-6.083003,-3.925056,-0.3213751,1.048366,0.0903101,-6.159053,-29.61649,4.320165,1001.465
21.220664978,-1.423439,-7.63699,-0.0189297,-0.1082036,0.7722818,0.008138942,-6.528884,-29.6139,3.879556,1001.465
21.240849018,2.743279,-6.083003,-0.2630626,0.0426884,0.8587488,-0.03270429,-6.528884,-29.6139,3.879556,1001.465
21.261033058,2.314352,0.5513291,-2.643358,-0.0626893,1.077274,-0.04379543,-6.528884,-29.6139,3.879556,1001.468
21.278693676,6.235968,4.85468,-0.385129,0.003478074,0.9106455,-0.04767698,-6.540233,-29.24612,4.318558,1001.468
21.298877716,4.336435,3.719073,0.7745022,-0.073651,0.7889706,-0.1083623,-6.540233,-29.24612,4.318558,1001.468
21.319060803,0.5373694,4.914448,-0.6902951,0.0120973,0.95702,-0.1183001,-6.522439,-29.9232,4.318794,1001.468
21.339244843,-6.448009,5.033986,0.8965686,0.03694018,1.0562,-0.1149139,-6.522439,-29.9232,4.318794,1001.468
21.359428883,-11.35003,3.659304,0.1031367,-0.05832865,1.078071,-0.1664059,-6.522439,-29.9232,4.318794,1001.468
21.379611969,-3.322972,6.229361,1.8731,0.05294922,0.8060913,0.06452899,-6.520795,-29.92166,3.879663,1001.468
21.399796009,9.17718,13.46138,-0.3240958,0.1293201,1.030779,0.09465289,-6.520795,-29.92166,3.879663,1001.468
21.419979572,15.12088,17.16704,0.7745022,0.02875992,1.173565,-0.08922285,-6.157409,-29.61494,3.881035,1001.468
21.440163136,9.728658,15.43375,-0.8123615,0.002000266,0.9535148,-0.07310204,-6.157409,-29.61494,3.881035,1001.468
21.460347176,4.826637,13.40161,1.812067,-0.04687151,0.9671374,-0.1029291,-6.157409,-29.61494,3.881035,1001.468
21.480530739,-2.648944,12.56485,3.032731,-0.05325482,1.056276,-0.1108873,-6.157409,-29.61494,3.881035,1001.468
21.500714302,-10.61473,12.02693,3.459964,0.01049526,1.049625,-0.1266832,-6.157409,-29.61494,3.881035,1001.467
21.520898342,-14.72017,10.11433,3.948229,-0.03286473,0.9275888,-0.1981302,-6.167113,-29.24563,3.880906,1001.467
21.541081905,-9.205396,12.56485,5.840259,-0.05428974,1.015638,0.2230816,-6.167113,-29.24563,3.880906,1001.467
21.558742523,0.8437457,19.19918,4.070296,0.03484889,0.9828475,0.2427385,-6.167113,-29.24563,3.880906,1001.467
21.578926087,5.194289,15.37398,2.117233,0.1200045,0.8865355,-0.03178126,-5.774556,-29.92067,3.00436,1001.467
21.599110127,-0.0141079,9.63618,1.751034,0.0856789,1.091584,0.005415238,-5.774556,-29.92067,3.00436,1001.465
21.619293690,-2.158742,9.098261,1.384834,0.0484837,1.015215,0.07743298,-6.887572,-29.91619,2.623527,1001.465
21.639477253,-0.3204842,4.316761,2.2393,0.0565593,0.9849719,0.1099105,-6.887572,-29.91619,2.623527,1001.465
21.659660816,0.2309931,-0.2256647,-0.3240958,0.08127064,1.015316,0.1163138,-6.524186,-29.60948,2.624899,1001.465
21.679844856,-0.5043099,-4.409478,-0.9954612,0.04945133,0.9748765,0.0912308,-6.524186,-29.60948,2.624899,1001.463
21.700028420,-0.6268604,-2.676184,-1.056494,0.04664638,1.006277,0.1453809,-6.524186,-29.60948,2.624899,1001.463
21.720211983,-0.3204842,0.2524854,-0.6902951,-0.03367188,0.986905,0.1709045,-7.187432,-30.28463,2.622424,1001.461
21.740396023,-0.8106862,-0.3452022,-0.1409961,-0.06521765,0.9631547,0.1734003,-7.187432,-30.28463,2.622424,1001.461
21.760579586,-0.5043099,-0.3452022,0.2862364,-0.04412092,0.9728284,0.2066487,-7.205226,-29.60756,2.622188,1001.459
21.780763149,-0.0141079,0.3122541,0.5914025,0.01187235,0.969449,0.1914154,-7.205226,-29.60756,2.622188,1001.459
21.800947190,0.1084426,0.6110979,0.7745022,0.0507757,0.9832076,0.1814123,-7.205226,-29.60756,2.622188,1001.459
21.821130276,0.2922684,0.4317916,0.2252032,0.05607652,0.9839493,0.1634155,-6.504748,-30.28502,2.186004,1001.459
21.838791847,0.1697179,-0.1061272,-0.1409961,0.0535499,0.9937598,0.147556,-6.504748,-30.28502,2.186004,1001.463
21.858974934,0.1697179,-0.7038147,-0.5071955,0.02951426,0.9870669,0.1513515,-6.877868,-30.28551,2.623656,1001.463
21.879158974,-0.1979337,-0.2256647,-0.5071955,-0.01153412,0.9912875,0.152955,-6.877868,-30.28551,2.623656,1001.455
21.899343014,-0.0141079,0.1329478,-0.2020294,-0.03313613,0.9826108,0.1649797,-6.877868,-30.28551,2.623656,1001.455
21.919526100,-0.1366584,0.0731791,0.1031367,-0.02350932,0.9841926,0.1664566,-6.152711,-29.61053,2.626377,1001.455
21.939710140,-0.1979337,0.0731791,0.4083028,0.01417478,0.9789193,0.1682433,-6.152711,-29.61053,2.626377,1001.455
21.959894180,-0.07538315,0.1329478,0.2862364,0.04496721,0.985204,0.1668627,-6.524186,-29.60948,2.624899,1001.457
